nback_loop.thisRepN,nback_loop.thisTrialN,nback_loop.thisN,nback_loop.thisIndex,key_resp_nback.keys,key_resp_nback.rt,nback_level,target_cat,animal_img,scene_img,trial_resp_corr,trial_num,target_repeat,lure_repeat,block_num,total_resp_corr,total_target_corr,participant,age,date,expName,psychopyVersion,frameRate,
,,,,,,,,,,,,,,,,,0,100,2020_Jan_18_1244,calibration_phase,3.0.0b12,60.05883363219329,
,,,,,,,,,,,,,,,,,0,100,2020_Jan_18_1244,calibration_phase,3.0.0b12,60.05883363219329,
,,,,,,,,,,,,,,,,,0,100,2020_Jan_18_1244,calibration_phase,3.0.0b12,60.05883363219329,
,,,,,,,,,,,,,,,,,0,100,2020_Jan_18_1244,calibration_phase,3.0.0b12,60.05883363219329,
,,,,,,,,,,,,,,,,,0,100,2020_Jan_18_1244,calibration_phase,3.0.0b12,60.05883363219329,
,,,,,,,,,,,,,,,,,0,100,2020_Jan_18_1244,calibration_phase,3.0.0b12,60.05883363219329,
,,,,,,,,,,,,,,,,,0,100,2020_Jan_18_1244,calibration_phase,3.0.0b12,60.05883363219329,
,,,,,,,,,,,,,,,,,0,100,2020_Jan_18_1244,calibration_phase,3.0.0b12,60.05883363219329,
,,,,,,,,,,,,,,,,,0,100,2020_Jan_18_1244,calibration_phase,3.0.0b12,60.05883363219329,
,,,,,,,,,,,,,,,,,0,100,2020_Jan_18_1244,calibration_phase,3.0.0b12,60.05883363219329,
,,,,,,,,,,,,,,,,,0,100,2020_Jan_18_1244,calibration_phase,3.0.0b12,60.05883363219329,
,,,,,,,,,,,,,,,,,0,100,2020_Jan_18_1244,calibration_phase,3.0.0b12,60.05883363219329,
,,,,,,,,,,,,,,,,,0,100,2020_Jan_18_1244,calibration_phase,3.0.0b12,60.05883363219329,
,,,,,,,,,,,,,,,,,0,100,2020_Jan_18_1244,calibration_phase,3.0.0b12,60.05883363219329,
,,,,,,,,,,,,,,,,,0,100,2020_Jan_18_1244,calibration_phase,3.0.0b12,60.05883363219329,
0,0,0,0,f,0.7826640999992378,1,animal,95,101,1,0,0,0,1,1,0,0,100,2020_Jan_18_1244,calibration_phase,3.0.0b12,60.05883363219329,
0,1,1,1,f,0.31772820000333013,1,animal,57,151,1,1,0,0,1,2,0,0,100,2020_Jan_18_1244,calibration_phase,3.0.0b12,60.05883363219329,
0,2,2,2,j,0.43332500000542495,1,animal,57,7,1,2,1,0,1,3,1,0,100,2020_Jan_18_1244,calibration_phase,3.0.0b12,60.05883363219329,
0,3,3,3,f,0.36843059999955585,1,animal,167,89,1,3,0,0,1,4,1,0,100,2020_Jan_18_1244,calibration_phase,3.0.0b12,60.05883363219329,
0,4,4,4,f,0.6497417999999016,1,animal,65,143,1,4,0,0,1,5,1,0,100,2020_Jan_18_1244,calibration_phase,3.0.0b12,60.05883363219329,
0,5,5,5,f,0.4341266999981599,1,animal,19,44,1,5,0,0,1,6,1,0,100,2020_Jan_18_1244,calibration_phase,3.0.0b12,60.05883363219329,
0,6,6,6,f,0.4865546999935759,1,animal,14,37,1,6,0,0,1,7,1,0,100,2020_Jan_18_1244,calibration_phase,3.0.0b12,60.05883363219329,
0,7,7,7,f,0.5510374000004958,1,animal,63,135,1,7,0,0,1,8,1,0,100,2020_Jan_18_1244,calibration_phase,3.0.0b12,60.05883363219329,
0,8,8,8,f,0.500598099999479,1,animal,58,130,1,8,0,0,1,9,1,0,100,2020_Jan_18_1244,calibration_phase,3.0.0b12,60.05883363219329,
0,9,9,9,f,0.4337166999976034,1,animal,7,108,1,9,0,0,1,10,1,0,100,2020_Jan_18_1244,calibration_phase,3.0.0b12,60.05883363219329,
0,10,10,10,f,0.5172547999973176,1,animal,47,108,1,10,0,1,1,11,1,0,100,2020_Jan_18_1244,calibration_phase,3.0.0b12,60.05883363219329,
0,11,11,11,f,0.38413779999973485,1,animal,92,86,1,11,0,0,1,12,1,0,100,2020_Jan_18_1244,calibration_phase,3.0.0b12,60.05883363219329,
0,12,12,12,f,0.4176078000018606,1,animal,96,45,1,12,0,0,1,13,1,0,100,2020_Jan_18_1244,calibration_phase,3.0.0b12,60.05883363219329,
0,13,13,13,j,0.4834074000027613,1,animal,96,150,1,13,1,0,1,14,2,0,100,2020_Jan_18_1244,calibration_phase,3.0.0b12,60.05883363219329,
0,14,14,14,f,0.2677884999939124,1,animal,98,150,1,14,0,1,1,15,2,0,100,2020_Jan_18_1244,calibration_phase,3.0.0b12,60.05883363219329,
0,15,15,15,j,0.484152199998789,1,animal,98,94,1,15,1,0,1,16,3,0,100,2020_Jan_18_1244,calibration_phase,3.0.0b12,60.05883363219329,
0,16,16,16,f,0.43419160000485135,1,animal,132,106,1,16,0,0,1,17,3,0,100,2020_Jan_18_1244,calibration_phase,3.0.0b12,60.05883363219329,
0,17,17,17,f,0.5174015000011423,1,animal,86,155,1,17,0,0,1,18,3,0,100,2020_Jan_18_1244,calibration_phase,3.0.0b12,60.05883363219329,
0,18,18,18,f,0.3838351000013063,1,animal,15,96,1,18,0,0,1,19,3,0,100,2020_Jan_18_1244,calibration_phase,3.0.0b12,60.05883363219329,
0,19,19,19,f,0.434097199999087,1,animal,91,19,1,19,0,0,1,20,3,0,100,2020_Jan_18_1244,calibration_phase,3.0.0b12,60.05883363219329,
0,20,20,20,f,0.7338716000012937,1,animal,38,73,1,20,0,0,1,21,3,0,100,2020_Jan_18_1244,calibration_phase,3.0.0b12,60.05883363219329,
0,21,21,21,f,0.5672980999952415,1,animal,20,122,1,21,0,0,1,22,3,0,100,2020_Jan_18_1244,calibration_phase,3.0.0b12,60.05883363219329,
0,22,22,22,j,0.5020303000055719,1,animal,20,122,1,22,1,1,1,23,4,0,100,2020_Jan_18_1244,calibration_phase,3.0.0b12,60.05883363219329,
0,23,23,23,f,0.38382609999825945,1,animal,56,97,1,23,0,0,1,24,4,0,100,2020_Jan_18_1244,calibration_phase,3.0.0b12,60.05883363219329,
0,24,24,24,f,0.6172321999983978,1,animal,99,97,1,24,0,1,1,25,4,0,100,2020_Jan_18_1244,calibration_phase,3.0.0b12,60.05883363219329,
0,25,25,25,f,0.5158700000029057,1,animal,52,51,1,25,0,0,1,26,4,0,100,2020_Jan_18_1244,calibration_phase,3.0.0b12,60.05883363219329,
0,26,26,26,j,0.4509159000008367,1,animal,52,107,1,26,1,0,1,27,5,0,100,2020_Jan_18_1244,calibration_phase,3.0.0b12,60.05883363219329,
0,27,27,27,f,0.3837961000026553,1,animal,159,149,1,27,0,0,1,28,5,0,100,2020_Jan_18_1244,calibration_phase,3.0.0b12,60.05883363219329,
0,28,28,28,f,0.5169619000007515,1,animal,112,26,1,28,0,0,1,29,5,0,100,2020_Jan_18_1244,calibration_phase,3.0.0b12,60.05883363219329,
0,29,29,29,j,0.5003385999953025,1,animal,112,26,1,29,1,1,1,30,6,0,100,2020_Jan_18_1244,calibration_phase,3.0.0b12,60.05883363219329,
0,30,30,30,f,0.40099479999480536,1,animal,139,74,1,30,0,0,1,31,6,0,100,2020_Jan_18_1244,calibration_phase,3.0.0b12,60.05883363219329,
0,31,31,31,f,0.351035799998499,1,animal,102,60,1,31,0,0,1,32,6,0,100,2020_Jan_18_1244,calibration_phase,3.0.0b12,60.05883363219329,
0,32,32,32,f,0.43372500000259606,1,animal,84,5,1,32,0,0,1,33,6,0,100,2020_Jan_18_1244,calibration_phase,3.0.0b12,60.05883363219329,
0,33,33,33,f,0.3840850999986287,1,animal,55,61,1,33,0,0,1,34,6,0,100,2020_Jan_18_1244,calibration_phase,3.0.0b12,60.05883363219329,
0,34,34,34,f,0.38398769999912474,1,animal,4,56,1,34,0,0,1,35,6,0,100,2020_Jan_18_1244,calibration_phase,3.0.0b12,60.05883363219329,
0,35,35,35,f,0.4175961000000825,1,animal,113,24,1,35,0,0,1,36,6,0,100,2020_Jan_18_1244,calibration_phase,3.0.0b12,60.05883363219329,
0,36,36,36,f,0.5014140999992378,1,animal,74,24,1,36,0,1,1,37,6,0,100,2020_Jan_18_1244,calibration_phase,3.0.0b12,60.05883363219329,
0,37,37,37,f,0.5006360999977915,1,animal,138,33,1,37,0,0,1,38,6,0,100,2020_Jan_18_1244,calibration_phase,3.0.0b12,60.05883363219329,
0,38,38,38,j,0.717464099994686,1,animal,138,63,1,38,1,0,1,39,7,0,100,2020_Jan_18_1244,calibration_phase,3.0.0b12,60.05883363219329,
0,39,39,39,f,0.48353669999778504,1,animal,54,139,1,39,0,0,1,40,7,0,100,2020_Jan_18_1244,calibration_phase,3.0.0b12,60.05883363219329,
0,40,40,40,f,0.4839967000007164,1,animal,59,166,1,40,0,0,1,41,7,0,100,2020_Jan_18_1244,calibration_phase,3.0.0b12,60.05883363219329,
0,41,41,41,f,0.4182658000063384,1,animal,37,55,1,41,0,0,1,42,7,0,100,2020_Jan_18_1244,calibration_phase,3.0.0b12,60.05883363219329,
0,42,42,42,f,0.3335873000032734,1,animal,94,54,1,42,0,0,1,43,7,0,100,2020_Jan_18_1244,calibration_phase,3.0.0b12,60.05883363219329,
0,43,43,43,f,0.28360149999934947,1,animal,77,8,1,43,0,0,1,44,7,0,100,2020_Jan_18_1244,calibration_phase,3.0.0b12,60.05883363219329,
0,44,44,44,f,0.33326669999951264,1,animal,115,100,1,44,0,0,1,45,7,0,100,2020_Jan_18_1244,calibration_phase,3.0.0b12,60.05883363219329,
0,45,45,45,f,0.5342632000028971,1,animal,166,100,1,45,0,1,1,46,7,0,100,2020_Jan_18_1244,calibration_phase,3.0.0b12,60.05883363219329,
0,46,46,46,f,0.950762799999211,1,animal,124,157,1,46,0,0,1,47,7,0,100,2020_Jan_18_1244,calibration_phase,3.0.0b12,60.05883363219329,
0,47,47,47,f,0.7333822000000509,1,animal,26,157,1,47,0,1,1,48,7,0,100,2020_Jan_18_1244,calibration_phase,3.0.0b12,60.05883363219329,
0,48,48,48,j,0.5351994000011473,1,animal,26,123,1,48,1,0,1,49,8,0,100,2020_Jan_18_1244,calibration_phase,3.0.0b12,60.05883363219329,
0,49,49,49,f,0.40003920000162907,1,animal,6,152,1,49,0,0,1,50,8,0,100,2020_Jan_18_1244,calibration_phase,3.0.0b12,60.05883363219329,
,,,,,,,,,,,,,,,,,0,100,2020_Jan_18_1244,calibration_phase,3.0.0b12,60.05883363219329,
,,,,,,,,,,,,,,,,,0,100,2020_Jan_18_1244,calibration_phase,3.0.0b12,60.05883363219329,
,,,,,,,,,,,,,,,,,0,100,2020_Jan_18_1244,calibration_phase,3.0.0b12,60.05883363219329,
,,,,,,,,,,,,,,,,,0,100,2020_Jan_18_1244,calibration_phase,3.0.0b12,60.05883363219329,
,,,,,,,,,,,,,,,,,0,100,2020_Jan_18_1244,calibration_phase,3.0.0b12,60.05883363219329,
,,,,,,,,,,,,,,,,,0,100,2020_Jan_18_1244,calibration_phase,3.0.0b12,60.05883363219329,
,,,,,,,,,,,,,,,,,0,100,2020_Jan_18_1244,calibration_phase,3.0.0b12,60.05883363219329,
,,,,,,,,,,,,,,,,,0,100,2020_Jan_18_1244,calibration_phase,3.0.0b12,60.05883363219329,
,,,,,,,,,,,,,,,,,0,100,2020_Jan_18_1244,calibration_phase,3.0.0b12,60.05883363219329,
,,,,,,,,,,,,,,,,,0,100,2020_Jan_18_1244,calibration_phase,3.0.0b12,60.05883363219329,
,,,,,,,,,,,,,,,,,0,100,2020_Jan_18_1244,calibration_phase,3.0.0b12,60.05883363219329,
,,,,,,,,,,,,,,,,,0,100,2020_Jan_18_1244,calibration_phase,3.0.0b12,60.05883363219329,
,,,,,,,,,,,,,,,,,0,100,2020_Jan_18_1244,calibration_phase,3.0.0b12,60.05883363219329,
,,,,,,,,,,,,,,,,,0,100,2020_Jan_18_1244,calibration_phase,3.0.0b12,60.05883363219329,
,,,,,,,,,,,,,,,,,0,100,2020_Jan_18_1244,calibration_phase,3.0.0b12,60.05883363219329,
0,0,0,0,f,0.31594919999770354,1,scene,154,10,1,0,0,0,2,51,8,0,100,2020_Jan_18_1244,calibration_phase,3.0.0b12,60.05883363219329,
0,1,1,1,f,0.36737270000594435,1,scene,148,113,1,1,0,0,2,52,8,0,100,2020_Jan_18_1244,calibration_phase,3.0.0b12,60.05883363219329,
0,2,2,2,f,0.3673004000011133,1,scene,141,71,1,2,0,0,2,53,8,0,100,2020_Jan_18_1244,calibration_phase,3.0.0b12,60.05883363219329,
0,3,3,3,j,0.5669743999969796,1,scene,100,71,1,3,1,0,2,54,9,0,100,2020_Jan_18_1244,calibration_phase,3.0.0b12,60.05883363219329,
0,4,4,4,f,0.4168857999975444,1,scene,17,93,1,4,0,0,2,55,9,0,100,2020_Jan_18_1244,calibration_phase,3.0.0b12,60.05883363219329,
0,5,5,5,f,0.43396650000067893,1,scene,66,62,1,5,0,0,2,56,9,0,100,2020_Jan_18_1244,calibration_phase,3.0.0b12,60.05883363219329,
0,6,6,6,f,0.41633740000543185,1,scene,66,119,1,6,0,1,2,57,9,0,100,2020_Jan_18_1244,calibration_phase,3.0.0b12,60.05883363219329,
0,7,7,7,f,0.35021270000288496,1,scene,136,153,1,7,0,0,2,58,9,0,100,2020_Jan_18_1244,calibration_phase,3.0.0b12,60.05883363219329,
0,8,8,8,f,0.3047316000011051,1,scene,42,112,1,8,0,0,2,59,9,0,100,2020_Jan_18_1244,calibration_phase,3.0.0b12,60.05883363219329,
0,9,9,9,j,0.5362628000002587,1,scene,42,112,1,9,1,1,2,60,10,0,100,2020_Jan_18_1244,calibration_phase,3.0.0b12,60.05883363219329,
0,10,10,10,f,0.33377699999982724,1,scene,22,126,1,10,0,0,2,61,10,0,100,2020_Jan_18_1244,calibration_phase,3.0.0b12,60.05883363219329,
0,11,11,11,f,0.3497592999992776,1,scene,87,59,1,11,0,0,2,62,10,0,100,2020_Jan_18_1244,calibration_phase,3.0.0b12,60.05883363219329,
0,12,12,12,f,0.3669621000008192,1,scene,131,161,1,12,0,0,2,63,10,0,100,2020_Jan_18_1244,calibration_phase,3.0.0b12,60.05883363219329,
0,13,13,13,f,0.3843771999963792,1,scene,131,18,1,13,0,1,2,64,10,0,100,2020_Jan_18_1244,calibration_phase,3.0.0b12,60.05883363219329,
0,14,14,14,f,0.41794640000443906,1,scene,116,159,1,14,0,0,2,65,10,0,100,2020_Jan_18_1244,calibration_phase,3.0.0b12,60.05883363219329,
0,15,15,15,f,0.6003360000031535,1,scene,82,104,1,15,0,0,2,66,10,0,100,2020_Jan_18_1244,calibration_phase,3.0.0b12,60.05883363219329,
0,16,16,16,j,0.5171714000025531,1,scene,28,104,1,16,1,0,2,67,11,0,100,2020_Jan_18_1244,calibration_phase,3.0.0b12,60.05883363219329,
0,17,17,17,f,0.37061849999736296,1,scene,28,109,1,17,0,1,2,68,11,0,100,2020_Jan_18_1244,calibration_phase,3.0.0b12,60.05883363219329,
0,18,18,18,f,0.34975280000071507,1,scene,16,162,1,18,0,0,2,69,11,0,100,2020_Jan_18_1244,calibration_phase,3.0.0b12,60.05883363219329,
0,19,19,19,f,0.5879870999997365,1,scene,140,50,1,19,0,0,2,70,11,0,100,2020_Jan_18_1244,calibration_phase,3.0.0b12,60.05883363219329,
0,20,20,20,f,0.40333880000252975,1,scene,119,129,1,20,0,0,2,71,11,0,100,2020_Jan_18_1244,calibration_phase,3.0.0b12,60.05883363219329,
0,21,21,21,f,0.5171870999984094,1,scene,126,80,1,21,0,0,2,72,11,0,100,2020_Jan_18_1244,calibration_phase,3.0.0b12,60.05883363219329,
0,22,22,22,j,0.5543249999973341,1,scene,49,80,1,22,1,0,2,73,12,0,100,2020_Jan_18_1244,calibration_phase,3.0.0b12,60.05883363219329,
0,23,23,23,f,0.351030300000275,1,scene,49,64,1,23,0,1,2,74,12,0,100,2020_Jan_18_1244,calibration_phase,3.0.0b12,60.05883363219329,
0,24,24,24,f,0.33364840000285767,1,scene,68,83,1,24,0,0,2,75,12,0,100,2020_Jan_18_1244,calibration_phase,3.0.0b12,60.05883363219329,
0,25,25,25,f,0.36776040000404464,1,scene,12,30,1,25,0,0,2,76,12,0,100,2020_Jan_18_1244,calibration_phase,3.0.0b12,60.05883363219329,
0,26,26,26,f,0.5007659000038984,1,scene,120,136,1,26,0,0,2,77,12,0,100,2020_Jan_18_1244,calibration_phase,3.0.0b12,60.05883363219329,
0,27,27,27,f,0.45064239999919664,1,scene,30,22,1,27,0,0,2,78,12,0,100,2020_Jan_18_1244,calibration_phase,3.0.0b12,60.05883363219329,
0,28,28,28,f,0.43354919999546837,1,scene,30,16,1,28,0,1,2,79,12,0,100,2020_Jan_18_1244,calibration_phase,3.0.0b12,60.05883363219329,
0,29,29,29,j,0.5840250999972341,1,scene,150,16,1,29,1,0,2,80,13,0,100,2020_Jan_18_1244,calibration_phase,3.0.0b12,60.05883363219329,
0,30,30,30,f,0.3334647000010591,1,scene,156,154,1,30,0,0,2,81,13,0,100,2020_Jan_18_1244,calibration_phase,3.0.0b12,60.05883363219329,
0,31,31,31,f,0.300769900000887,1,scene,165,154,0,31,1,0,2,81,13,0,100,2020_Jan_18_1244,calibration_phase,3.0.0b12,60.05883363219329,
0,32,32,32,f,0.369027399996412,1,scene,165,2,1,32,0,1,2,82,13,0,100,2020_Jan_18_1244,calibration_phase,3.0.0b12,60.05883363219329,
0,33,33,33,f,0.46764919999986887,1,scene,89,27,1,33,0,0,2,83,13,0,100,2020_Jan_18_1244,calibration_phase,3.0.0b12,60.05883363219329,
0,34,34,34,f,0.45019440000032773,1,scene,137,138,1,34,0,0,2,84,13,0,100,2020_Jan_18_1244,calibration_phase,3.0.0b12,60.05883363219329,
0,35,35,35,f,0.48349489999964135,1,scene,72,98,1,35,0,0,2,85,13,0,100,2020_Jan_18_1244,calibration_phase,3.0.0b12,60.05883363219329,
0,36,36,36,f,0.5021315000049071,1,scene,162,40,1,36,0,0,2,86,13,0,100,2020_Jan_18_1244,calibration_phase,3.0.0b12,60.05883363219329,
0,37,37,37,f,0.4509330000000773,1,scene,109,92,1,37,0,0,2,87,13,0,100,2020_Jan_18_1244,calibration_phase,3.0.0b12,60.05883363219329,
0,38,38,38,f,0.5665710000030231,1,scene,109,121,1,38,0,1,2,88,13,0,100,2020_Jan_18_1244,calibration_phase,3.0.0b12,60.05883363219329,
0,39,39,39,f,0.4855427000002237,1,scene,103,110,1,39,0,0,2,89,13,0,100,2020_Jan_18_1244,calibration_phase,3.0.0b12,60.05883363219329,
0,40,40,40,f,0.3673214000009466,1,scene,122,66,1,40,0,0,2,90,13,0,100,2020_Jan_18_1244,calibration_phase,3.0.0b12,60.05883363219329,
0,41,41,41,j,0.517576199999894,1,scene,78,66,1,41,1,0,2,91,14,0,100,2020_Jan_18_1244,calibration_phase,3.0.0b12,60.05883363219329,
0,42,42,42,f,0.35075740000320366,1,scene,114,111,1,42,0,0,2,92,14,0,100,2020_Jan_18_1244,calibration_phase,3.0.0b12,60.05883363219329,
0,43,43,43,f,0.3670899000062491,1,scene,76,95,1,43,0,0,2,93,14,0,100,2020_Jan_18_1244,calibration_phase,3.0.0b12,60.05883363219329,
0,44,44,44,f,0.4177424000008614,1,scene,145,134,1,44,0,0,2,94,14,0,100,2020_Jan_18_1244,calibration_phase,3.0.0b12,60.05883363219329,
0,45,45,45,f,0.3838871999978437,1,scene,60,116,1,45,0,0,2,95,14,0,100,2020_Jan_18_1244,calibration_phase,3.0.0b12,60.05883363219329,
0,46,46,46,f,0.36767820000386564,1,scene,135,43,1,46,0,0,2,96,14,0,100,2020_Jan_18_1244,calibration_phase,3.0.0b12,60.05883363219329,
0,47,47,47,f,0.4530663999976241,1,scene,64,43,0,47,1,0,2,96,14,0,100,2020_Jan_18_1244,calibration_phase,3.0.0b12,60.05883363219329,
0,48,48,48,f,0.583883599996625,1,scene,21,165,1,48,0,0,2,97,14,0,100,2020_Jan_18_1244,calibration_phase,3.0.0b12,60.05883363219329,
0,49,49,49,f,0.5876088999939384,1,scene,107,90,1,49,0,0,2,98,14,0,100,2020_Jan_18_1244,calibration_phase,3.0.0b12,60.05883363219329,
,,,,,,,,,,,,,,,,,0,100,2020_Jan_18_1244,calibration_phase,3.0.0b12,60.05883363219329,
,,,,,,,,,,,,,,,,,0,100,2020_Jan_18_1244,calibration_phase,3.0.0b12,60.05883363219329,
,,,,,,,,,,,,,,,,,0,100,2020_Jan_18_1244,calibration_phase,3.0.0b12,60.05883363219329,
,,,,,,,,,,,,,,,,,0,100,2020_Jan_18_1244,calibration_phase,3.0.0b12,60.05883363219329,
,,,,,,,,,,,,,,,,,0,100,2020_Jan_18_1244,calibration_phase,3.0.0b12,60.05883363219329,
,,,,,,,,,,,,,,,,,0,100,2020_Jan_18_1244,calibration_phase,3.0.0b12,60.05883363219329,
,,,,,,,,,,,,,,,,,0,100,2020_Jan_18_1244,calibration_phase,3.0.0b12,60.05883363219329,
,,,,,,,,,,,,,,,,,0,100,2020_Jan_18_1244,calibration_phase,3.0.0b12,60.05883363219329,
,,,,,,,,,,,,,,,,,0,100,2020_Jan_18_1244,calibration_phase,3.0.0b12,60.05883363219329,
,,,,,,,,,,,,,,,,,0,100,2020_Jan_18_1244,calibration_phase,3.0.0b12,60.05883363219329,
,,,,,,,,,,,,,,,,,0,100,2020_Jan_18_1244,calibration_phase,3.0.0b12,60.05883363219329,
,,,,,,,,,,,,,,,,,0,100,2020_Jan_18_1244,calibration_phase,3.0.0b12,60.05883363219329,
,,,,,,,,,,,,,,,,,0,100,2020_Jan_18_1244,calibration_phase,3.0.0b12,60.05883363219329,
,,,,,,,,,,,,,,,,,0,100,2020_Jan_18_1244,calibration_phase,3.0.0b12,60.05883363219329,
,,,,,,,,,,,,,,,,,0,100,2020_Jan_18_1244,calibration_phase,3.0.0b12,60.05883363219329,
0,0,0,0,f,0.6540144000027794,2,animal,123,13,1,0,0,0,1,1,0,0,100,2020_Jan_18_1244,calibration_phase,3.0.0b12,60.05883363219329,
0,1,1,1,f,0.5333489000040572,2,animal,61,41,1,1,0,0,1,2,0,0,100,2020_Jan_18_1244,calibration_phase,3.0.0b12,60.05883363219329,
0,2,2,2,f,0.4840769000002183,2,animal,25,156,1,2,0,0,1,3,0,0,100,2020_Jan_18_1244,calibration_phase,3.0.0b12,60.05883363219329,
0,3,3,3,f,0.6840758999969694,2,animal,147,6,1,3,0,0,1,4,0,0,100,2020_Jan_18_1244,calibration_phase,3.0.0b12,60.05883363219329,
0,4,4,4,j,0.6171197000003303,2,animal,25,57,1,4,1,0,1,5,1,0,100,2020_Jan_18_1244,calibration_phase,3.0.0b12,60.05883363219329,
0,5,5,5,f,0.5672653000001446,2,animal,143,46,1,5,0,0,1,6,1,0,100,2020_Jan_18_1244,calibration_phase,3.0.0b12,60.05883363219329,
0,6,6,6,f,0.5341348000001744,2,animal,81,68,1,6,0,0,1,7,1,0,100,2020_Jan_18_1244,calibration_phase,3.0.0b12,60.05883363219329,
0,7,7,7,f,0.4178172999963863,2,animal,80,48,1,7,0,0,1,8,1,0,100,2020_Jan_18_1244,calibration_phase,3.0.0b12,60.05883363219329,
0,8,8,8,j,0.41794130000198493,2,animal,81,118,1,8,1,0,1,9,2,0,100,2020_Jan_18_1244,calibration_phase,3.0.0b12,60.05883363219329,
0,9,9,9,f,0.4683431000012206,2,animal,128,48,1,9,0,1,1,10,2,0,100,2020_Jan_18_1244,calibration_phase,3.0.0b12,60.05883363219329,
0,10,10,10,f,0.43452399999659974,2,animal,8,65,1,10,0,0,1,11,2,0,100,2020_Jan_18_1244,calibration_phase,3.0.0b12,60.05883363219329,
0,11,11,11,f,0.700489100003324,2,animal,127,69,1,11,0,0,1,12,2,0,100,2020_Jan_18_1244,calibration_phase,3.0.0b12,60.05883363219329,
0,12,12,12,j,0.6677342000039062,2,animal,8,137,1,12,1,0,1,13,3,0,100,2020_Jan_18_1244,calibration_phase,3.0.0b12,60.05883363219329,
0,13,13,13,f,0.4848591000045417,2,animal,101,84,1,13,0,0,1,14,3,0,100,2020_Jan_18_1244,calibration_phase,3.0.0b12,60.05883363219329,
0,14,14,14,f,0.5506738000040059,2,animal,46,75,1,14,0,0,1,15,3,0,100,2020_Jan_18_1244,calibration_phase,3.0.0b12,60.05883363219329,
0,15,15,15,f,0.5199491000021226,2,animal,155,84,1,15,0,1,1,16,3,0,100,2020_Jan_18_1244,calibration_phase,3.0.0b12,60.05883363219329,
0,16,16,16,f,0.4839535999999498,2,animal,149,145,1,16,0,0,1,17,3,0,100,2020_Jan_18_1244,calibration_phase,3.0.0b12,60.05883363219329,
0,17,17,17,f,0.4183970000012778,2,animal,158,1,1,17,0,0,1,18,3,0,100,2020_Jan_18_1244,calibration_phase,3.0.0b12,60.05883363219329,
0,18,18,18,f,0.41761370000313036,2,animal,50,145,1,18,0,1,1,19,3,0,100,2020_Jan_18_1244,calibration_phase,3.0.0b12,60.05883363219329,
0,19,19,19,f,0.38513919999968493,2,animal,158,78,0,19,1,0,1,19,3,0,100,2020_Jan_18_1244,calibration_phase,3.0.0b12,60.05883363219329,
0,20,20,20,f,0.48615309999877354,2,animal,163,35,1,20,0,0,1,20,3,0,100,2020_Jan_18_1244,calibration_phase,3.0.0b12,60.05883363219329,
0,21,21,21,f,0.6167025000031572,2,animal,45,120,1,21,0,0,1,21,3,0,100,2020_Jan_18_1244,calibration_phase,3.0.0b12,60.05883363219329,
0,22,22,22,f,0.5008454999988317,2,animal,130,125,1,22,0,0,1,22,3,0,100,2020_Jan_18_1244,calibration_phase,3.0.0b12,60.05883363219329,
0,23,23,23,f,0.516453600001114,2,animal,88,167,1,23,0,0,1,23,3,0,100,2020_Jan_18_1244,calibration_phase,3.0.0b12,60.05883363219329,
0,24,24,24,f,0.7006151000023237,2,animal,108,42,1,24,0,0,1,24,3,0,100,2020_Jan_18_1244,calibration_phase,3.0.0b12,60.05883363219329,
0,25,25,25,j,0.7830594000042765,2,animal,88,131,1,25,1,0,1,25,4,0,100,2020_Jan_18_1244,calibration_phase,3.0.0b12,60.05883363219329,
0,26,26,26,f,0.5669497000053525,2,animal,5,3,1,26,0,0,1,26,4,0,100,2020_Jan_18_1244,calibration_phase,3.0.0b12,60.05883363219329,
0,27,27,27,f,0.7010749000037322,2,animal,1,23,1,27,0,0,1,27,4,0,100,2020_Jan_18_1244,calibration_phase,3.0.0b12,60.05883363219329,
0,28,28,28,f,0.6841216999964672,2,animal,106,3,1,28,0,1,1,28,4,0,100,2020_Jan_18_1244,calibration_phase,3.0.0b12,60.05883363219329,
0,29,29,29,f,0.517090699999244,2,animal,110,76,1,29,0,0,1,29,4,0,100,2020_Jan_18_1244,calibration_phase,3.0.0b12,60.05883363219329,
0,30,30,30,f,0.5170025999977952,2,animal,97,124,1,30,0,0,1,30,4,0,100,2020_Jan_18_1244,calibration_phase,3.0.0b12,60.05883363219329,
0,31,31,31,f,0.600473400001647,2,animal,75,49,1,31,0,0,1,31,4,0,100,2020_Jan_18_1244,calibration_phase,3.0.0b12,60.05883363219329,
0,32,32,32,f,0.4832539000053657,2,animal,105,147,1,32,0,0,1,32,4,0,100,2020_Jan_18_1244,calibration_phase,3.0.0b12,60.05883363219329,
0,33,33,33,f,0.45108820000314154,2,animal,134,144,1,33,0,0,1,33,4,0,100,2020_Jan_18_1244,calibration_phase,3.0.0b12,60.05883363219329,
0,34,34,34,f,0.4523598000014317,2,animal,0,14,1,34,0,0,1,34,4,0,100,2020_Jan_18_1244,calibration_phase,3.0.0b12,60.05883363219329,
0,35,35,35,f,0.5005402000024333,2,animal,33,164,1,35,0,0,1,35,4,0,100,2020_Jan_18_1244,calibration_phase,3.0.0b12,60.05883363219329,
0,36,36,36,f,0.45087839999905555,2,animal,90,14,1,36,0,1,1,36,4,0,100,2020_Jan_18_1244,calibration_phase,3.0.0b12,60.05883363219329,
0,37,37,37,f,0.4175277000031201,2,animal,33,132,0,37,1,0,1,36,4,0,100,2020_Jan_18_1244,calibration_phase,3.0.0b12,60.05883363219329,
0,38,38,38,f,0.4672900000005029,2,animal,85,12,1,38,0,0,1,37,4,0,100,2020_Jan_18_1244,calibration_phase,3.0.0b12,60.05883363219329,
0,39,39,39,f,0.6503634000036982,2,animal,10,91,1,39,0,0,1,38,4,0,100,2020_Jan_18_1244,calibration_phase,3.0.0b12,60.05883363219329,
0,40,40,40,f,0.4328421000027447,2,animal,133,102,1,40,0,0,1,39,4,0,100,2020_Jan_18_1244,calibration_phase,3.0.0b12,60.05883363219329,
0,41,41,41,f,0.3334623999980977,2,animal,36,11,1,41,0,0,1,40,4,0,100,2020_Jan_18_1244,calibration_phase,3.0.0b12,60.05883363219329,
0,42,42,42,j,0.7501544999977341,2,animal,133,15,1,42,1,0,1,41,5,0,100,2020_Jan_18_1244,calibration_phase,3.0.0b12,60.05883363219329,
0,43,43,43,f,0.4669313999984297,2,animal,34,11,1,43,0,1,1,42,5,0,100,2020_Jan_18_1244,calibration_phase,3.0.0b12,60.05883363219329,
0,44,44,44,f,0.5497653999991599,2,animal,23,20,1,44,0,0,1,43,5,0,100,2020_Jan_18_1244,calibration_phase,3.0.0b12,60.05883363219329,
0,45,45,45,f,0.4688888000018778,2,animal,153,0,1,45,0,0,1,44,5,0,100,2020_Jan_18_1244,calibration_phase,3.0.0b12,60.05883363219329,
0,46,46,46,f,0.6507065999976476,2,animal,69,20,1,46,0,1,1,45,5,0,100,2020_Jan_18_1244,calibration_phase,3.0.0b12,60.05883363219329,
0,47,47,47,f,0.5012338999949861,2,animal,62,52,1,47,0,0,1,46,5,0,100,2020_Jan_18_1244,calibration_phase,3.0.0b12,60.05883363219329,
0,48,48,48,f,0.6674140000031912,2,animal,48,85,1,48,0,0,1,47,5,0,100,2020_Jan_18_1244,calibration_phase,3.0.0b12,60.05883363219329,
0,49,49,49,f,0.5843232000042917,2,animal,62,52,0,49,1,1,1,47,5,0,100,2020_Jan_18_1244,calibration_phase,3.0.0b12,60.05883363219329,
,,,,,,,,,,,,,,,,,0,100,2020_Jan_18_1244,calibration_phase,3.0.0b12,60.05883363219329,
,,,,,,,,,,,,,,,,,0,100,2020_Jan_18_1244,calibration_phase,3.0.0b12,60.05883363219329,
,,,,,,,,,,,,,,,,,0,100,2020_Jan_18_1244,calibration_phase,3.0.0b12,60.05883363219329,
,,,,,,,,,,,,,,,,,0,100,2020_Jan_18_1244,calibration_phase,3.0.0b12,60.05883363219329,
,,,,,,,,,,,,,,,,,0,100,2020_Jan_18_1244,calibration_phase,3.0.0b12,60.05883363219329,
,,,,,,,,,,,,,,,,,0,100,2020_Jan_18_1244,calibration_phase,3.0.0b12,60.05883363219329,
,,,,,,,,,,,,,,,,,0,100,2020_Jan_18_1244,calibration_phase,3.0.0b12,60.05883363219329,
,,,,,,,,,,,,,,,,,0,100,2020_Jan_18_1244,calibration_phase,3.0.0b12,60.05883363219329,
,,,,,,,,,,,,,,,,,0,100,2020_Jan_18_1244,calibration_phase,3.0.0b12,60.05883363219329,
,,,,,,,,,,,,,,,,,0,100,2020_Jan_18_1244,calibration_phase,3.0.0b12,60.05883363219329,
,,,,,,,,,,,,,,,,,0,100,2020_Jan_18_1244,calibration_phase,3.0.0b12,60.05883363219329,
,,,,,,,,,,,,,,,,,0,100,2020_Jan_18_1244,calibration_phase,3.0.0b12,60.05883363219329,
,,,,,,,,,,,,,,,,,0,100,2020_Jan_18_1244,calibration_phase,3.0.0b12,60.05883363219329,
,,,,,,,,,,,,,,,,,0,100,2020_Jan_18_1244,calibration_phase,3.0.0b12,60.05883363219329,
,,,,,,,,,,,,,,,,,0,100,2020_Jan_18_1244,calibration_phase,3.0.0b12,60.05883363219329,
0,0,0,0,f,0.817626999996719,2,scene,9,81,1,0,0,0,2,48,5,0,100,2020_Jan_18_1244,calibration_phase,3.0.0b12,60.05883363219329,
0,1,1,1,f,0.5173577000023215,2,scene,104,163,1,1,0,0,2,49,5,0,100,2020_Jan_18_1244,calibration_phase,3.0.0b12,60.05883363219329,
0,2,2,2,j,0.5173553999993601,2,scene,9,81,1,2,1,1,2,50,6,0,100,2020_Jan_18_1244,calibration_phase,3.0.0b12,60.05883363219329,
0,3,3,3,f,0.584112800002913,2,scene,79,105,1,3,0,0,2,51,6,0,100,2020_Jan_18_1244,calibration_phase,3.0.0b12,60.05883363219329,
0,4,4,4,f,0.6011668999999529,2,scene,142,141,1,4,0,0,2,52,6,0,100,2020_Jan_18_1244,calibration_phase,3.0.0b12,60.05883363219329,
0,5,5,5,f,0.5002572999947006,2,scene,32,77,1,5,0,0,2,53,6,0,100,2020_Jan_18_1244,calibration_phase,3.0.0b12,60.05883363219329,
0,6,6,6,f,0.4979133000015281,2,scene,53,82,1,6,0,0,2,54,6,0,100,2020_Jan_18_1244,calibration_phase,3.0.0b12,60.05883363219329,
0,7,7,7,f,0.4353402999986429,2,scene,40,77,0,7,1,0,2,54,6,0,100,2020_Jan_18_1244,calibration_phase,3.0.0b12,60.05883363219329,
0,8,8,8,f,0.701012500001525,2,scene,3,133,1,8,0,0,2,55,6,0,100,2020_Jan_18_1244,calibration_phase,3.0.0b12,60.05883363219329,
0,9,9,9,f,0.5835797000036109,2,scene,40,67,1,9,0,1,2,56,6,0,100,2020_Jan_18_1244,calibration_phase,3.0.0b12,60.05883363219329,
0,10,10,10,f,0.5683582000056049,2,scene,161,36,1,10,0,0,2,57,6,0,100,2020_Jan_18_1244,calibration_phase,3.0.0b12,60.05883363219329,
0,11,11,11,f,0.7835133999979007,2,scene,117,128,1,11,0,0,2,58,6,0,100,2020_Jan_18_1244,calibration_phase,3.0.0b12,60.05883363219329,
0,12,12,12,f,0.5508992999966722,2,scene,157,47,1,12,0,0,2,59,6,0,100,2020_Jan_18_1244,calibration_phase,3.0.0b12,60.05883363219329,
0,13,13,13,j,0.45143539999844506,2,scene,117,103,0,13,0,1,2,59,6,0,100,2020_Jan_18_1244,calibration_phase,3.0.0b12,60.05883363219329,
0,14,14,14,j,0.9832335000028252,2,scene,41,47,1,14,1,0,2,60,7,0,100,2020_Jan_18_1244,calibration_phase,3.0.0b12,60.05883363219329,
0,15,15,15,f,0.7172281999955885,2,scene,125,32,1,15,0,0,2,61,7,0,100,2020_Jan_18_1244,calibration_phase,3.0.0b12,60.05883363219329,
0,16,16,16,f,0.46914709999691695,2,scene,44,146,1,16,0,0,2,62,7,0,100,2020_Jan_18_1244,calibration_phase,3.0.0b12,60.05883363219329,
0,17,17,17,f,0.5844253999966895,2,scene,35,17,1,17,0,0,2,63,7,0,100,2020_Jan_18_1244,calibration_phase,3.0.0b12,60.05883363219329,
0,18,18,18,f,0.7176182999974117,2,scene,24,58,1,18,0,0,2,64,7,0,100,2020_Jan_18_1244,calibration_phase,3.0.0b12,60.05883363219329,
0,19,19,19,f,0.45053769999503857,2,scene,111,9,1,19,0,0,2,65,7,0,100,2020_Jan_18_1244,calibration_phase,3.0.0b12,60.05883363219329,
0,20,20,20,f,1.002382700004091,2,scene,83,34,1,20,0,0,2,66,7,0,100,2020_Jan_18_1244,calibration_phase,3.0.0b12,60.05883363219329,
0,21,21,21,f,0.5510657000049832,2,scene,2,4,1,21,0,0,2,67,7,0,100,2020_Jan_18_1244,calibration_phase,3.0.0b12,60.05883363219329,
0,22,22,22,f,0.5183209999959217,2,scene,83,87,1,22,0,1,2,68,7,0,100,2020_Jan_18_1244,calibration_phase,3.0.0b12,60.05883363219329,
0,23,23,23,f,0.5341382999977213,2,scene,118,148,1,23,0,0,2,69,7,0,100,2020_Jan_18_1244,calibration_phase,3.0.0b12,60.05883363219329,
0,24,24,24,j,0.7010908000011113,2,scene,67,87,1,24,1,0,2,70,8,0,100,2020_Jan_18_1244,calibration_phase,3.0.0b12,60.05883363219329,
0,25,25,25,j,0.8673750000016298,2,scene,39,148,1,25,1,0,2,71,9,0,100,2020_Jan_18_1244,calibration_phase,3.0.0b12,60.05883363219329,
0,26,26,26,f,0.5495350999990478,2,scene,67,99,1,26,0,1,2,72,9,0,100,2020_Jan_18_1244,calibration_phase,3.0.0b12,60.05883363219329,
0,27,27,27,f,0.4371337999982643,2,scene,164,114,1,27,0,0,2,73,9,0,100,2020_Jan_18_1244,calibration_phase,3.0.0b12,60.05883363219329,
0,28,28,28,f,0.6178214000028674,2,scene,27,38,1,28,0,0,2,74,9,0,100,2020_Jan_18_1244,calibration_phase,3.0.0b12,60.05883363219329,
0,29,29,29,f,0.9841407999992953,2,scene,43,25,1,29,0,0,2,75,9,0,100,2020_Jan_18_1244,calibration_phase,3.0.0b12,60.05883363219329,
0,30,30,30,f,0.7024767999973847,2,scene,27,142,1,30,0,1,2,76,9,0,100,2020_Jan_18_1244,calibration_phase,3.0.0b12,60.05883363219329,
0,31,31,31,j,0.6678270999982487,2,scene,70,25,1,31,1,0,2,77,10,0,100,2020_Jan_18_1244,calibration_phase,3.0.0b12,60.05883363219329,
0,32,32,32,f,0.43443870000191964,2,scene,29,72,1,32,0,0,2,78,10,0,100,2020_Jan_18_1244,calibration_phase,3.0.0b12,60.05883363219329,
0,33,33,33,f,0.768401500004984,2,scene,18,29,1,33,0,0,2,79,10,0,100,2020_Jan_18_1244,calibration_phase,3.0.0b12,60.05883363219329,
0,34,34,34,f,0.517582799999218,2,scene,129,115,1,34,0,0,2,80,10,0,100,2020_Jan_18_1244,calibration_phase,3.0.0b12,60.05883363219329,
0,35,35,35,f,0.4174826000016765,2,scene,11,140,1,35,0,0,2,81,10,0,100,2020_Jan_18_1244,calibration_phase,3.0.0b12,60.05883363219329,
0,36,36,36,f,0.5836010999992141,2,scene,31,117,1,36,0,0,2,82,10,0,100,2020_Jan_18_1244,calibration_phase,3.0.0b12,60.05883363219329,
0,37,37,37,f,0.6344783999957144,2,scene,71,70,1,37,0,0,2,83,10,0,100,2020_Jan_18_1244,calibration_phase,3.0.0b12,60.05883363219329,
0,38,38,38,f,0.6346238999976777,2,scene,152,21,1,38,0,0,2,84,10,0,100,2020_Jan_18_1244,calibration_phase,3.0.0b12,60.05883363219329,
0,39,39,39,f,0.6165446000013617,2,scene,71,28,1,39,0,1,2,85,10,0,100,2020_Jan_18_1244,calibration_phase,3.0.0b12,60.05883363219329,
0,40,40,40,f,0.4669270000013057,2,scene,93,21,0,40,1,0,2,85,10,0,100,2020_Jan_18_1244,calibration_phase,3.0.0b12,60.05883363219329,
0,41,41,41,f,0.7676643000013428,2,scene,13,53,1,41,0,0,2,86,10,0,100,2020_Jan_18_1244,calibration_phase,3.0.0b12,60.05883363219329,
0,42,42,42,f,0.5374778999976115,2,scene,121,31,1,42,0,0,2,87,10,0,100,2020_Jan_18_1244,calibration_phase,3.0.0b12,60.05883363219329,
0,43,43,43,j,0.6506385000029695,2,scene,144,53,1,43,1,0,2,88,11,0,100,2020_Jan_18_1244,calibration_phase,3.0.0b12,60.05883363219329,
0,44,44,44,f,0.7855753999974695,2,scene,73,127,1,44,0,0,2,89,11,0,100,2020_Jan_18_1244,calibration_phase,3.0.0b12,60.05883363219329,
0,45,45,45,f,0.5339687999949092,2,scene,160,79,1,45,0,0,2,90,11,0,100,2020_Jan_18_1244,calibration_phase,3.0.0b12,60.05883363219329,
0,46,46,46,f,0.46702380000351695,2,scene,51,39,1,46,0,0,2,91,11,0,100,2020_Jan_18_1244,calibration_phase,3.0.0b12,60.05883363219329,
0,47,47,47,f,0.5167722000041977,2,scene,151,160,1,47,0,0,2,92,11,0,100,2020_Jan_18_1244,calibration_phase,3.0.0b12,60.05883363219329,
0,48,48,48,f,0.4187619999938761,2,scene,146,158,1,48,0,0,2,93,11,0,100,2020_Jan_18_1244,calibration_phase,3.0.0b12,60.05883363219329,
0,49,49,49,f,0.46713460000319174,2,scene,151,88,1,49,0,1,2,94,11,0,100,2020_Jan_18_1244,calibration_phase,3.0.0b12,60.05883363219329,
