memory_trials.thisRepN,memory_trials.thisTrialN,memory_trials.thisN,memory_trials.thisIndex,key_resp_mem_old_new.keys,key_resp_mem_old_new.rt,trial_num,mem_image,category,trial_type,correct,attended,key_resp_mem_confidence.keys,key_resp_mem_confidence.rt,participant,date,expName,psychopyVersion,frameRate,age,
,,,,,,,,,,,,,,0,2020_Jan_18_1310,builder_test,3.2.4,60.08737906745351,100,
,,,,,,,,,,,,,,0,2020_Jan_18_1310,builder_test,3.2.4,60.08737906745351,100,
,,,,,,,,,,,,,,0,2020_Jan_18_1310,builder_test,3.2.4,60.08737906745351,100,
,,,,,,,,,,,,,,0,2020_Jan_18_1310,builder_test,3.2.4,60.08737906745351,100,
,,,,,,,,,,,,,,0,2020_Jan_18_1310,builder_test,3.2.4,60.08737906745351,100,
,,,,,,,,,,,,,,0,2020_Jan_18_1310,builder_test,3.2.4,60.08737906745351,100,
0,-1,-1,0,j,1.766453600001114,1,90,f,new,1,1,3,2.1023257999986527,0,2020_Jan_18_1310,builder_test,3.2.4,60.08737906745351,100,
0,-1,-1,0,j,2.351077699997404,2,15,f,old,0,1,4,5.130832399998326,0,2020_Jan_18_1310,builder_test,3.2.4,60.08737906745351,100,
0,-1,-1,0,j,2.7500141999989864,3,202,o,new,1,1,4,1.8498736000037752,0,2020_Jan_18_1310,builder_test,3.2.4,60.08737906745351,100,
0,-1,-1,0,f,2.800870200000645,4,55,f,old,1,1,3,2.367272999996203,0,2020_Jan_18_1310,builder_test,3.2.4,60.08737906745351,100,
0,-1,-1,0,j,4.782922300000791,5,50,o,old,0,1,3,0.5671599999986938,0,2020_Jan_18_1310,builder_test,3.2.4,60.08737906745351,100,
0,-1,-1,0,f,1.6860971999994945,6,205,f,new,0,1,3,3.0984479000035208,0,2020_Jan_18_1310,builder_test,3.2.4,60.08737906745351,100,
0,-1,-1,0,f,4.033295199995337,7,36,o,old,1,1,3,1.384205700000166,0,2020_Jan_18_1310,builder_test,3.2.4,60.08737906745351,100,
0,-1,-1,0,j,3.2002594000005047,8,218,f,new,1,1,3,0.9339503000010154,0,2020_Jan_18_1310,builder_test,3.2.4,60.08737906745351,100,
0,-1,-1,0,j,6.149853700000676,9,264,f,new,1,1,2,1.6342285999999149,0,2020_Jan_18_1310,builder_test,3.2.4,60.08737906745351,100,
0,-1,-1,0,f,6.116497600000002,10,209,o,new,0,1,3,0.5344783000036841,0,2020_Jan_18_1310,builder_test,3.2.4,60.08737906745351,100,
0,-1,-1,0,f,1.817623499999172,11,194,o,old,1,1,3,0.85073719999491,0,2020_Jan_18_1310,builder_test,3.2.4,60.08737906745351,100,
0,-1,-1,0,j,3.201468399995065,12,65,o,new,1,1,3,2.7998183999952744,0,2020_Jan_18_1310,builder_test,3.2.4,60.08737906745351,100,
0,-1,-1,0,f,3.3349801000003936,13,280,f,new,0,1,3,0.41904259999864735,0,2020_Jan_18_1310,builder_test,3.2.4,60.08737906745351,100,
0,-1,-1,0,f,12.715757500001928,14,268,o,old,1,1,3,1.7334760000012466,0,2020_Jan_18_1310,builder_test,3.2.4,60.08737906745351,100,
0,-1,-1,0,f,5.868362900000648,15,266,f,new,0,1,3,1.6496279999992112,0,2020_Jan_18_1310,builder_test,3.2.4,60.08737906745351,100,
0,-1,-1,0,j,1.3837934999974095,16,292,f,old,0,1,2,4.483006100002967,0,2020_Jan_18_1310,builder_test,3.2.4,60.08737906745351,100,
0,-1,-1,0,j,3.1672088999985135,17,15,o,old,0,1,3,1.700221099999908,0,2020_Jan_18_1310,builder_test,3.2.4,60.08737906745351,100,
0,-1,-1,0,f,4.2000187000012374,18,265,f,old,1,1,4,0.25101880000147503,0,2020_Jan_18_1310,builder_test,3.2.4,60.08737906745351,100,
0,-1,-1,0,f,5.999870400002692,19,220,f,new,0,1,3,1.6666099000067334,0,2020_Jan_18_1310,builder_test,3.2.4,60.08737906745351,100,
0,-1,-1,0,f,2.2859158999999636,20,60,o,new,0,1,3,0.35085289999551605,0,2020_Jan_18_1310,builder_test,3.2.4,60.08737906745351,100,
0,-1,-1,0,f,1.4672075000053155,21,29,f,new,0,1,3,0.2991337999992538,0,2020_Jan_18_1310,builder_test,3.2.4,60.08737906745351,100,
0,-1,-1,0,f,1.1174434000058682,22,94,f,old,1,1,3,0.25002990000211867,0,2020_Jan_18_1310,builder_test,3.2.4,60.08737906745351,100,
0,-1,-1,0,j,1.7841056999968714,23,71,f,old,0,1,4,0.3501691999990726,0,2020_Jan_18_1310,builder_test,3.2.4,60.08737906745351,100,
0,-1,-1,0,j,1.5168831999981194,24,280,o,old,0,1,4,0.3000173000036739,0,2020_Jan_18_1310,builder_test,3.2.4,60.08737906745351,100,
0,-1,-1,0,f,1.4652107000001706,25,171,o,new,0,1,3,1.1342992999998387,0,2020_Jan_18_1310,builder_test,3.2.4,60.08737906745351,100,
0,-1,-1,0,f,2.2532025999971665,26,199,f,old,1,1,4,0.3212937999996939,0,2020_Jan_18_1310,builder_test,3.2.4,60.08737906745351,100,
0,-1,-1,0,j,2.620511399996758,27,118,o,old,0,1,3,1.6840541000055964,0,2020_Jan_18_1310,builder_test,3.2.4,60.08737906745351,100,
0,-1,-1,0,f,2.2837667999992846,28,59,f,old,1,1,3,0.5844712000034633,0,2020_Jan_18_1310,builder_test,3.2.4,60.08737906745351,100,
0,-1,-1,0,j,2.1674283999964246,29,227,o,old,0,1,4,0.43453500000032363,0,2020_Jan_18_1310,builder_test,3.2.4,60.08737906745351,100,
0,-1,-1,0,j,1.8672192000012728,30,70,f,new,1,1,4,0.3507836000062525,0,2020_Jan_18_1310,builder_test,3.2.4,60.08737906745351,100,
0,-1,-1,0,f,1.6671236000038334,31,239,o,old,1,1,4,0.20078339999599848,0,2020_Jan_18_1310,builder_test,3.2.4,60.08737906745351,100,
0,-1,-1,0,f,1.2338812000016333,32,273,f,old,1,1,4,0.26748760000191396,0,2020_Jan_18_1310,builder_test,3.2.4,60.08737906745351,100,
0,-1,-1,0,f,0.9004478999995627,33,86,o,old,1,1,4,0.21637519999785582,0,2020_Jan_18_1310,builder_test,3.2.4,60.08737906745351,100,
0,-1,-1,0,f,2.1673263999982737,34,244,f,old,1,1,4,0.517273400000704,0,2020_Jan_18_1310,builder_test,3.2.4,60.08737906745351,100,
0,-1,-1,0,f,1.7835938000062015,35,236,f,old,1,1,3,0.21847300000081304,0,2020_Jan_18_1310,builder_test,3.2.4,60.08737906745351,100,
0,-1,-1,0,j,2.2837070999958087,36,198,o,old,0,1,3,0.40140229999815347,0,2020_Jan_18_1310,builder_test,3.2.4,60.08737906745351,100,
0,-1,-1,0,j,1.450750700001663,37,189,f,old,0,1,3,0.31745860000228276,0,2020_Jan_18_1310,builder_test,3.2.4,60.08737906745351,100,
0,-1,-1,0,f,5.672185200004606,38,195,o,new,0,1,4,0.2674927999978536,0,2020_Jan_18_1310,builder_test,3.2.4,60.08737906745351,100,
0,-1,-1,0,f,1.672746800002642,39,272,f,old,1,1,4,0.2031810000044061,0,2020_Jan_18_1310,builder_test,3.2.4,60.08737906745351,100,
0,-1,-1,0,f,5.13357669999823,40,42,f,new,0,1,3,0.6169120999984443,0,2020_Jan_18_1310,builder_test,3.2.4,60.08737906745351,100,
0,-1,-1,0,j,1.5001540999946883,41,288,f,old,0,1,3,1.1838999999963562,0,2020_Jan_18_1310,builder_test,3.2.4,60.08737906745351,100,
0,-1,-1,0,f,5.347828999998455,42,182,o,old,1,1,3,0.5168811999974423,0,2020_Jan_18_1310,builder_test,3.2.4,60.08737906745351,100,
0,-1,-1,0,j,1.833358700001554,43,124,f,old,0,1,3,0.9005790000010165,0,2020_Jan_18_1310,builder_test,3.2.4,60.08737906745351,100,
0,-1,-1,0,f,1.9861518000034266,44,277,f,new,0,1,3,0.2871558999977424,0,2020_Jan_18_1310,builder_test,3.2.4,60.08737906745351,100,
0,-1,-1,0,f,1.684211799998593,45,215,o,old,1,1,4,0.21738439999899128,0,2020_Jan_18_1310,builder_test,3.2.4,60.08737906745351,100,
0,-1,-1,0,f,2.3823596000002,46,184,f,old,1,1,3,0.30071309999766527,0,2020_Jan_18_1310,builder_test,3.2.4,60.08737906745351,100,
0,-1,-1,0,j,2.152982500003418,47,258,o,new,1,1,3,0.6338688999967417,0,2020_Jan_18_1310,builder_test,3.2.4,60.08737906745351,100,
0,-1,-1,0,f,1.5707705000022543,48,121,f,new,0,1,4,0.2712260000043898,0,2020_Jan_18_1310,builder_test,3.2.4,60.08737906745351,100,
0,-1,-1,0,j,1.283904000003531,49,165,o,old,0,1,3,0.3502003999965382,0,2020_Jan_18_1310,builder_test,3.2.4,60.08737906745351,100,
0,-1,-1,0,j,1.0838538999960292,50,166,o,old,0,1,4,0.9847217999995337,0,2020_Jan_18_1310,builder_test,3.2.4,60.08737906745351,100,
0,-1,-1,0,f,2.5669482000012067,51,143,o,old,1,1,3,1.450340800001868,0,2020_Jan_18_1310,builder_test,3.2.4,60.08737906745351,100,
0,-1,-1,0,j,2.5169422999970266,52,3,f,old,0,1,3,0.350725300006161,0,2020_Jan_18_1310,builder_test,3.2.4,60.08737906745351,100,
0,-1,-1,0,j,1.3341049000009662,53,47,f,old,0,1,3,0.36749439999402966,0,2020_Jan_18_1310,builder_test,3.2.4,60.08737906745351,100,
0,-1,-1,0,f,2.117436699998507,54,153,o,old,1,1,3,0.36761110000225017,0,2020_Jan_18_1310,builder_test,3.2.4,60.08737906745351,100,
0,-1,-1,0,f,1.4837393999987398,55,37,f,old,1,1,4,0.2672409000006155,0,2020_Jan_18_1310,builder_test,3.2.4,60.08737906745351,100,
0,-1,-1,0,j,2.067382799999905,56,102,o,old,0,1,3,0.41749840000557015,0,2020_Jan_18_1310,builder_test,3.2.4,60.08737906745351,100,
0,-1,-1,0,j,1.885908099997323,57,71,o,new,1,1,3,0.31762349999917205,0,2020_Jan_18_1310,builder_test,3.2.4,60.08737906745351,100,
0,-1,-1,0,f,2.067293400003109,58,115,o,old,1,1,4,0.3179814000031911,0,2020_Jan_18_1310,builder_test,3.2.4,60.08737906745351,100,
0,-1,-1,0,f,5.454883099999279,59,115,f,old,1,1,2,6.715817600001174,0,2020_Jan_18_1310,builder_test,3.2.4,60.08737906745351,100,
0,-1,-1,0,j,1.7178426000027684,60,52,f,old,0,1,3,0.4544456000003265,0,2020_Jan_18_1310,builder_test,3.2.4,60.08737906745351,100,
0,-1,-1,0,j,1.8006978999983403,61,49,o,old,0,1,4,0.7172907999993186,0,2020_Jan_18_1310,builder_test,3.2.4,60.08737906745351,100,
0,-1,-1,0,f,2.0338048999983585,62,57,f,old,1,1,3,0.23367750000033993,0,2020_Jan_18_1310,builder_test,3.2.4,60.08737906745351,100,
0,-1,-1,0,j,1.8171720999962417,63,96,f,old,0,1,3,0.7007407999990392,0,2020_Jan_18_1310,builder_test,3.2.4,60.08737906745351,100,
0,-1,-1,0,j,1.3363181999957305,64,167,o,new,1,1,4,0.28328899999905843,0,2020_Jan_18_1310,builder_test,3.2.4,60.08737906745351,100,
0,-1,-1,0,j,8.266199300000153,65,185,f,old,0,1,3,0.6507276000047568,0,2020_Jan_18_1310,builder_test,3.2.4,60.08737906745351,100,
0,-1,-1,0,f,1.3166800999970292,66,188,o,old,1,1,4,0.6840642000024673,0,2020_Jan_18_1310,builder_test,3.2.4,60.08737906745351,100,
0,-1,-1,0,j,1.6616039000000455,67,234,o,new,1,1,3,0.8841346000044723,0,2020_Jan_18_1310,builder_test,3.2.4,60.08737906745351,100,
0,-1,-1,0,f,1.1184122000049683,68,29,o,old,1,1,4,0.20015409999905387,0,2020_Jan_18_1310,builder_test,3.2.4,60.08737906745351,100,
0,-1,-1,0,f,1.570714900000894,69,121,o,old,1,1,4,0.31718249999539694,0,2020_Jan_18_1310,builder_test,3.2.4,60.08737906745351,100,
0,-1,-1,0,j,1.4671895999999833,70,117,f,old,0,1,3,0.5339005999994697,0,2020_Jan_18_1310,builder_test,3.2.4,60.08737906745351,100,
0,-1,-1,0,j,4.816562600004545,71,228,f,old,0,1,3,0.5340627000041422,0,2020_Jan_18_1310,builder_test,3.2.4,60.08737906745351,100,
0,-1,-1,0,j,2.42880839999998,72,161,o,old,0,1,3,0.45113950000086334,0,2020_Jan_18_1310,builder_test,3.2.4,60.08737906745351,100,
0,-1,-1,0,j,1.3523991999973077,73,5,f,old,0,1,3,0.6190232999942964,0,2020_Jan_18_1310,builder_test,3.2.4,60.08737906745351,100,
0,-1,-1,0,j,1.950925900004222,74,169,f,old,0,1,3,1.4336513000016566,0,2020_Jan_18_1310,builder_test,3.2.4,60.08737906745351,100,
0,-1,-1,0,f,1.683712400001241,75,112,o,old,1,1,3,0.30079249999835156,0,2020_Jan_18_1310,builder_test,3.2.4,60.08737906745351,100,
0,-1,-1,0,j,2.4833220000000438,76,76,o,new,1,1,3,0.30126670000026934,0,2020_Jan_18_1310,builder_test,3.2.4,60.08737906745351,100,
0,-1,-1,0,f,1.5170814000011887,77,92,o,old,1,1,4,0.16760570000042208,0,2020_Jan_18_1310,builder_test,3.2.4,60.08737906745351,100,
0,-1,-1,0,f,3.367135499996948,78,255,f,old,1,1,4,0.2340457000027527,0,2020_Jan_18_1310,builder_test,3.2.4,60.08737906745351,100,
0,-1,-1,0,f,5.633377099999052,79,215,f,old,1,1,3,0.21731369999906747,0,2020_Jan_18_1310,builder_test,3.2.4,60.08737906745351,100,
0,-1,-1,0,f,2.033935899999051,80,256,o,old,1,1,3,0.20156809999753023,0,2020_Jan_18_1310,builder_test,3.2.4,60.08737906745351,100,
0,-1,-1,0,j,1.7367725000003702,81,267,o,new,1,1,4,0.7510457000025781,0,2020_Jan_18_1310,builder_test,3.2.4,60.08737906745351,100,
0,-1,-1,0,j,2.8667659999991884,82,160,f,new,1,1,3,0.8846201999986079,0,2020_Jan_18_1310,builder_test,3.2.4,60.08737906745351,100,
0,-1,-1,0,j,1.4505289000007906,83,196,f,old,0,1,3,0.3498316000041086,0,2020_Jan_18_1310,builder_test,3.2.4,60.08737906745351,100,
0,-1,-1,0,f,2.66689139999653,84,257,o,old,1,1,3,0.8003888999955961,0,2020_Jan_18_1310,builder_test,3.2.4,60.08737906745351,100,
0,-1,-1,0,j,1.1529354000012972,85,247,o,old,0,1,3,0.3342811000038637,0,2020_Jan_18_1310,builder_test,3.2.4,60.08737906745351,100,
0,-1,-1,0,j,2.667494200002693,86,1,f,old,0,1,3,0.4343896999998833,0,2020_Jan_18_1310,builder_test,3.2.4,60.08737906745351,100,
0,-1,-1,0,j,1.5672189999968396,87,226,o,old,0,1,3,0.300730900002236,0,2020_Jan_18_1310,builder_test,3.2.4,60.08737906745351,100,
0,-1,-1,0,f,2.2670427999983076,88,224,f,new,0,1,3,0.2511233999975957,0,2020_Jan_18_1310,builder_test,3.2.4,60.08737906745351,100,
0,-1,-1,0,j,1.017652000002272,89,149,o,old,0,1,3,0.3004025999980513,0,2020_Jan_18_1310,builder_test,3.2.4,60.08737906745351,100,
0,-1,-1,0,f,0.9509042999998201,90,208,o,old,1,1,4,0.5677471000017249,0,2020_Jan_18_1310,builder_test,3.2.4,60.08737906745351,100,
0,-1,-1,0,f,1.8180868999988888,91,49,f,new,0,1,3,0.4670749000069918,0,2020_Jan_18_1310,builder_test,3.2.4,60.08737906745351,100,
0,-1,-1,0,f,1.0364421999984188,92,131,f,new,0,1,4,0.5665211000014096,0,2020_Jan_18_1310,builder_test,3.2.4,60.08737906745351,100,
0,-1,-1,0,j,3.0001760000013746,93,180,o,new,1,1,3,0.4010576000000583,0,2020_Jan_18_1310,builder_test,3.2.4,60.08737906745351,100,
0,-1,-1,0,f,5.900027700001374,94,161,f,old,1,1,4,0.6672487000032561,0,2020_Jan_18_1310,builder_test,3.2.4,60.08737906745351,100,
0,-1,-1,0,j,3.0006310000026133,95,72,o,new,1,1,3,0.766733700002078,0,2020_Jan_18_1310,builder_test,3.2.4,60.08737906745351,100,
0,-1,-1,0,f,3.4175854999994044,96,158,f,old,1,1,3,0.3505853000024217,0,2020_Jan_18_1310,builder_test,3.2.4,60.08737906745351,100,
0,-1,-1,0,j,1.233609199996863,97,141,o,old,0,1,3,0.3504479000039282,0,2020_Jan_18_1310,builder_test,3.2.4,60.08737906745351,100,
0,-1,-1,0,f,2.7836768999986816,98,222,o,old,1,1,3,0.7505368999991333,0,2020_Jan_18_1310,builder_test,3.2.4,60.08737906745351,100,
0,-1,-1,0,j,2.5337967000014032,99,85,o,old,0,1,3,3.2500217000051634,0,2020_Jan_18_1310,builder_test,3.2.4,60.08737906745351,100,
0,-1,-1,0,f,2.302258299998357,100,56,o,new,0,1,3,0.20124829999986105,0,2020_Jan_18_1310,builder_test,3.2.4,60.08737906745351,100,
0,-1,-1,0,f,1.4172577999997884,101,232,o,old,1,1,4,0.8839227999997092,0,2020_Jan_18_1310,builder_test,3.2.4,60.08737906745351,100,
0,-1,-1,0,j,2.0171524999968824,102,87,f,old,0,1,3,0.5840055000007851,0,2020_Jan_18_1310,builder_test,3.2.4,60.08737906745351,100,
0,-1,-1,0,j,2.3673328000004403,103,83,o,old,0,1,3,0.3507314000016777,0,2020_Jan_18_1310,builder_test,3.2.4,60.08737906745351,100,
0,-1,-1,0,j,2.0172189000004437,104,264,o,old,0,1,3,0.23397939999995288,0,2020_Jan_18_1310,builder_test,3.2.4,60.08737906745351,100,
0,-1,-1,0,j,3.2350302999984706,105,173,f,new,1,1,3,0.22083779999957187,0,2020_Jan_18_1310,builder_test,3.2.4,60.08737906745351,100,
0,-1,-1,0,f,3.550598200003151,106,154,f,new,0,1,3,0.4008028000025661,0,2020_Jan_18_1310,builder_test,3.2.4,60.08737906745351,100,
0,-1,-1,0,f,1.152429800000391,107,30,f,new,0,1,3,0.25404250000428874,0,2020_Jan_18_1310,builder_test,3.2.4,60.08737906745351,100,
0,-1,-1,0,j,0.9834288999991259,108,156,f,old,0,1,3,0.31763990000035847,0,2020_Jan_18_1310,builder_test,3.2.4,60.08737906745351,100,
0,-1,-1,0,f,7.649463800000376,109,218,o,old,1,1,3,0.6339452000029269,0,2020_Jan_18_1310,builder_test,3.2.4,60.08737906745351,100,
0,-1,-1,0,f,1.1168524999957299,110,217,o,old,1,1,4,0.46726970000599977,0,2020_Jan_18_1310,builder_test,3.2.4,60.08737906745351,100,
0,-1,-1,0,f,0.8840130000025965,111,266,o,old,1,1,4,0.28405840000050375,0,2020_Jan_18_1310,builder_test,3.2.4,60.08737906745351,100,
0,-1,-1,0,f,2.100030500005232,112,250,f,old,1,1,3,0.5176165000011679,0,2020_Jan_18_1310,builder_test,3.2.4,60.08737906745351,100,
0,-1,-1,0,f,0.9339219000030425,113,200,f,old,1,1,3,0.2510526999976719,0,2020_Jan_18_1310,builder_test,3.2.4,60.08737906745351,100,
0,-1,-1,0,j,0.7506091999966884,114,64,f,new,1,1,3,0.41774769999756245,0,2020_Jan_18_1310,builder_test,3.2.4,60.08737906745351,100,
0,-1,-1,0,j,2.450338800001191,115,276,f,new,1,1,3,0.20397899999807123,0,2020_Jan_18_1310,builder_test,3.2.4,60.08737906745351,100,
0,-1,-1,0,f,1.3044966000015847,116,286,f,old,1,1,3,0.3364254999978584,0,2020_Jan_18_1310,builder_test,3.2.4,60.08737906745351,100,
0,-1,-1,0,j,1.5502106999992975,117,254,o,old,0,1,3,0.6837113000001409,0,2020_Jan_18_1310,builder_test,3.2.4,60.08737906745351,100,
0,-1,-1,0,j,2.8831779999964056,118,169,o,new,1,1,3,0.2841850999975577,0,2020_Jan_18_1310,builder_test,3.2.4,60.08737906745351,100,
0,-1,-1,0,j,1.1839542000016081,119,204,f,new,1,1,3,0.41747169999871403,0,2020_Jan_18_1310,builder_test,3.2.4,60.08737906745351,100,
0,-1,-1,0,j,1.2169723999977577,120,33,o,old,0,1,3,0.2996195999949123,0,2020_Jan_18_1310,builder_test,3.2.4,60.08737906745351,100,
0,-1,-1,0,j,4.933993899998313,121,201,f,new,1,1,3,0.2658182000013767,0,2020_Jan_18_1310,builder_test,3.2.4,60.08737906745351,100,
0,-1,-1,0,f,0.901169700002356,122,45,f,old,1,1,3,0.5003738999948837,0,2020_Jan_18_1310,builder_test,3.2.4,60.08737906745351,100,
0,-1,-1,0,j,2.7841276999970432,123,123,o,old,0,1,3,0.21743160000187345,0,2020_Jan_18_1310,builder_test,3.2.4,60.08737906745351,100,
0,-1,-1,0,j,1.3002307999995537,124,278,f,old,0,1,3,0.617467600000964,0,2020_Jan_18_1310,builder_test,3.2.4,60.08737906745351,100,
0,-1,-1,0,j,1.0177649000033853,125,73,o,old,0,1,3,0.2838888999976916,0,2020_Jan_18_1310,builder_test,3.2.4,60.08737906745351,100,
0,-1,-1,0,j,1.1840006999991601,126,47,o,old,0,1,3,0.20095109999965644,0,2020_Jan_18_1310,builder_test,3.2.4,60.08737906745351,100,
0,-1,-1,0,f,8.999445000001288,127,147,f,old,1,1,3,0.30097229999955744,0,2020_Jan_18_1310,builder_test,3.2.4,60.08737906745351,100,
0,-1,-1,0,j,2.650020900000527,128,20,f,new,1,1,3,0.3672835000033956,0,2020_Jan_18_1310,builder_test,3.2.4,60.08737906745351,100,
0,-1,-1,0,j,2.035818399999698,129,190,o,new,1,1,3,0.3839750999977696,0,2020_Jan_18_1310,builder_test,3.2.4,60.08737906745351,100,
0,-1,-1,0,j,2.083571799994388,130,238,f,new,1,1,3,0.184328799994546,0,2020_Jan_18_1310,builder_test,3.2.4,60.08737906745351,100,
0,-1,-1,0,j,7.566487600000983,131,150,o,new,1,1,3,0.5857344000032754,0,2020_Jan_18_1310,builder_test,3.2.4,60.08737906745351,100,
0,-1,-1,0,f,3.2020458999977564,132,203,f,old,1,1,3,0.5007074999957695,0,2020_Jan_18_1310,builder_test,3.2.4,60.08737906745351,100,
0,-1,-1,0,j,1.9001084999981686,133,189,o,old,0,1,3,0.3837089999942691,0,2020_Jan_18_1310,builder_test,3.2.4,60.08737906745351,100,
0,-1,-1,0,f,1.0341403999991599,134,287,o,old,1,1,3,0.20049290000315523,0,2020_Jan_18_1310,builder_test,3.2.4,60.08737906745351,100,
0,-1,-1,0,f,0.8174547000016901,135,246,o,old,1,1,4,0.4337712999986252,0,2020_Jan_18_1310,builder_test,3.2.4,60.08737906745351,100,
0,-1,-1,0,f,0.8174804000009317,136,285,o,old,1,1,4,0.3673601999980747,0,2020_Jan_18_1310,builder_test,3.2.4,60.08737906745351,100,
0,-1,-1,0,f,5.16680350000388,137,59,o,old,1,1,4,0.6171298999979626,0,2020_Jan_18_1310,builder_test,3.2.4,60.08737906745351,100,
0,-1,-1,0,f,2.1995094000012614,138,251,f,old,1,1,3,0.21662520000245422,0,2020_Jan_18_1310,builder_test,3.2.4,60.08737906745351,100,
0,-1,-1,0,j,1.1676947999949334,139,173,o,new,1,1,3,0.23849760000302922,0,2020_Jan_18_1310,builder_test,3.2.4,60.08737906745351,100,
0,-1,-1,0,f,5.116596499996376,140,216,f,new,0,1,4,0.8168516000005184,0,2020_Jan_18_1310,builder_test,3.2.4,60.08737906745351,100,
0,-1,-1,0,f,1.8047140999988187,141,164,o,old,1,1,3,0.8168656999987434,0,2020_Jan_18_1310,builder_test,3.2.4,60.08737906745351,100,
0,-1,-1,0,f,3.2183721999972477,142,176,o,new,0,1,3,0.2993905999974231,0,2020_Jan_18_1310,builder_test,3.2.4,60.08737906745351,100,
0,-1,-1,0,j,2.8672670999949332,143,292,o,new,1,1,3,0.2508751999994274,0,2020_Jan_18_1310,builder_test,3.2.4,60.08737906745351,100,
0,-1,-1,0,j,2.700525000000198,144,126,f,old,0,1,3,0.11771020000014687,0,2020_Jan_18_1310,builder_test,3.2.4,60.08737906745351,100,
0,-1,-1,0,j,11.999209199995676,145,178,f,old,0,1,3,0.3843226000026334,0,2020_Jan_18_1310,builder_test,3.2.4,60.08737906745351,100,
0,-1,-1,0,j,0.950854700000491,146,9,f,old,0,1,3,0.33412959999986924,0,2020_Jan_18_1310,builder_test,3.2.4,60.08737906745351,100,
0,-1,-1,0,f,2.5503036999944015,147,252,o,new,0,1,3,0.11797300000034738,0,2020_Jan_18_1310,builder_test,3.2.4,60.08737906745351,100,
0,-1,-1,0,f,1.4004895000034594,148,174,o,old,1,1,4,0.23406039999827044,0,2020_Jan_18_1310,builder_test,3.2.4,60.08737906745351,100,
0,-1,-1,0,j,3.2331844000000274,149,207,f,old,0,1,3,0.5004404000064824,0,2020_Jan_18_1310,builder_test,3.2.4,60.08737906745351,100,
0,-1,-1,0,j,1.1172736000007717,150,165,f,old,0,1,3,0.4007666999968933,0,2020_Jan_18_1310,builder_test,3.2.4,60.08737906745351,100,
0,-1,-1,0,j,0.5343974999996135,151,106,f,old,0,1,3,0.30060799999773735,0,2020_Jan_18_1310,builder_test,3.2.4,60.08737906745351,100,
0,-1,-1,0,f,0.8173185999985435,152,242,o,old,1,1,4,0.3504345999972429,0,2020_Jan_18_1310,builder_test,3.2.4,60.08737906745351,100,
0,-1,-1,0,j,1.0502293000026839,153,51,f,old,0,1,3,0.33443350000015926,0,2020_Jan_18_1310,builder_test,3.2.4,60.08737906745351,100,
0,-1,-1,0,j,2.0671167000036803,154,31,f,old,0,1,3,0.30089439999574097,0,2020_Jan_18_1310,builder_test,3.2.4,60.08737906745351,100,
0,-1,-1,0,f,1.0676616999990074,155,263,f,old,1,1,4,0.31762489999528043,0,2020_Jan_18_1310,builder_test,3.2.4,60.08737906745351,100,
0,-1,-1,0,f,1.8335531999982777,156,100,o,old,1,1,3,0.31736110000201734,0,2020_Jan_18_1310,builder_test,3.2.4,60.08737906745351,100,
0,-1,-1,0,j,1.015368699998362,157,2,o,new,1,1,3,0.3338707000002614,0,2020_Jan_18_1310,builder_test,3.2.4,60.08737906745351,100,
0,-1,-1,0,j,1.1184668999994756,158,108,f,new,1,1,3,0.7697650000045542,0,2020_Jan_18_1310,builder_test,3.2.4,60.08737906745351,100,
0,-1,-1,0,j,4.565475700001116,159,164,f,old,0,1,3,0.3675308000019868,0,2020_Jan_18_1310,builder_test,3.2.4,60.08737906745351,100,
0,-1,-1,0,j,0.8511601999998675,160,163,o,new,1,1,3,0.6672829000017373,0,2020_Jan_18_1310,builder_test,3.2.4,60.08737906745351,100,
0,-1,-1,0,j,2.600087500002701,161,239,f,new,1,1,3,0.2671591000034823,0,2020_Jan_18_1310,builder_test,3.2.4,60.08737906745351,100,
0,-1,-1,0,j,0.5515589999995427,162,221,f,new,1,1,3,0.25331179999921005,0,2020_Jan_18_1310,builder_test,3.2.4,60.08737906745351,100,
0,-1,-1,0,f,0.9674588999987463,163,14,o,old,1,1,4,0.2834960000036517,0,2020_Jan_18_1310,builder_test,3.2.4,60.08737906745351,100,
0,-1,-1,0,f,0.7506455999973696,164,101,o,new,0,1,3,0.6837429999941378,0,2020_Jan_18_1310,builder_test,3.2.4,60.08737906745351,100,
0,-1,-1,0,j,1.2170740000001388,165,84,f,old,0,1,1,1.8838600000017323,0,2020_Jan_18_1310,builder_test,3.2.4,60.08737906745351,100,
0,-1,-1,0,f,2.3004870000004303,166,228,o,old,1,1,4,0.5173309000019799,0,2020_Jan_18_1310,builder_test,3.2.4,60.08737906745351,100,
0,-1,-1,0,j,2.450481599997147,167,192,o,new,1,1,3,0.3511976000008872,0,2020_Jan_18_1310,builder_test,3.2.4,60.08737906745351,100,
0,-1,-1,0,j,0.9667215000008582,168,179,o,new,1,1,3,0.26774500000465196,0,2020_Jan_18_1310,builder_test,3.2.4,60.08737906745351,100,
0,-1,-1,0,f,1.5339429000014206,169,136,o,old,1,1,3,0.4006636999984039,0,2020_Jan_18_1310,builder_test,3.2.4,60.08737906745351,100,
0,-1,-1,0,f,2.767185299999255,170,40,f,old,1,1,3,0.8830615999977454,0,2020_Jan_18_1310,builder_test,3.2.4,60.08737906745351,100,
0,-1,-1,0,f,0.8671828000005917,171,240,o,old,1,1,4,0.48442570000042906,0,2020_Jan_18_1310,builder_test,3.2.4,60.08737906745351,100,
0,-1,-1,0,j,1.1506057000005967,172,48,o,new,1,1,3,0.31729709999490296,0,2020_Jan_18_1310,builder_test,3.2.4,60.08737906745351,100,
0,-1,-1,0,f,2.7333600999991177,173,260,f,old,1,1,3,0.46649469999829307,0,2020_Jan_18_1310,builder_test,3.2.4,60.08737906745351,100,
0,-1,-1,0,j,1.2176730999999563,174,270,f,old,0,1,3,0.26709209999535233,0,2020_Jan_18_1310,builder_test,3.2.4,60.08737906745351,100,
0,-1,-1,0,j,2.1172034999981406,175,98,o,old,0,1,3,0.3669575000021723,0,2020_Jan_18_1310,builder_test,3.2.4,60.08737906745351,100,
0,-1,-1,0,f,1.0175187999993796,176,270,o,old,1,1,4,0.21755880000273464,0,2020_Jan_18_1310,builder_test,3.2.4,60.08737906745351,100,
0,-1,-1,0,j,1.684787400001369,177,50,f,new,1,1,3,0.22133429999666987,0,2020_Jan_18_1310,builder_test,3.2.4,60.08737906745351,100,
0,-1,-1,0,f,1.3172018000041135,178,146,f,new,0,1,3,0.20118190000357572,0,2020_Jan_18_1310,builder_test,3.2.4,60.08737906745351,100,
0,-1,-1,0,f,1.5340323999989778,179,131,o,new,0,1,3,0.2002264999973704,0,2020_Jan_18_1310,builder_test,3.2.4,60.08737906745351,100,
0,-1,-1,0,f,0.8000936000025831,180,273,o,old,1,1,4,0.2672431000028155,0,2020_Jan_18_1310,builder_test,3.2.4,60.08737906745351,100,
0,-1,-1,0,f,0.6507666999968933,181,260,o,old,1,1,4,0.2339168000034988,0,2020_Jan_18_1310,builder_test,3.2.4,60.08737906745351,100,
0,-1,-1,0,f,2.4841629000002285,182,91,f,old,1,1,3,0.767112100002123,0,2020_Jan_18_1310,builder_test,3.2.4,60.08737906745351,100,
0,-1,-1,0,j,0.7369592000031844,183,269,f,new,1,1,3,0.21960509999917122,0,2020_Jan_18_1310,builder_test,3.2.4,60.08737906745351,100,
0,-1,-1,0,f,0.8173841999960132,184,222,f,new,0,1,3,0.28399789999821223,0,2020_Jan_18_1310,builder_test,3.2.4,60.08737906745351,100,
0,-1,-1,0,f,0.9337415999980294,185,178,o,old,1,1,4,0.2673662000015611,0,2020_Jan_18_1310,builder_test,3.2.4,60.08737906745351,100,
0,-1,-1,0,j,1.6695595000055619,186,235,f,new,1,1,3,0.18328560000372818,0,2020_Jan_18_1310,builder_test,3.2.4,60.08737906745351,100,
0,-1,-1,0,f,7.584543199998734,187,136,f,old,1,1,3,0.23472190000029514,0,2020_Jan_18_1310,builder_test,3.2.4,60.08737906745351,100,
0,-1,-1,0,f,7.148477399998228,188,135,o,old,1,1,4,0.4002260999986902,0,2020_Jan_18_1310,builder_test,3.2.4,60.08737906745351,100,
0,-1,-1,0,f,0.8500810000041383,189,53,o,old,1,1,3,0.40059829999518115,0,2020_Jan_18_1310,builder_test,3.2.4,60.08737906745351,100,
0,-1,-1,0,j,0.9838178000063635,190,276,o,old,0,1,3,0.2507547999994131,0,2020_Jan_18_1310,builder_test,3.2.4,60.08737906745351,100,
0,-1,-1,0,j,1.3505503000051249,191,226,f,old,0,1,3,0.2840795000010985,0,2020_Jan_18_1310,builder_test,3.2.4,60.08737906745351,100,
0,-1,-1,0,j,1.1167924999972456,192,157,f,new,1,1,3,0.23410799999692244,0,2020_Jan_18_1310,builder_test,3.2.4,60.08737906745351,100,
0,-1,-1,0,f,3.4839674000031664,193,16,o,old,1,1,3,0.20036740000068676,0,2020_Jan_18_1310,builder_test,3.2.4,60.08737906745351,100,
0,-1,-1,0,j,0.8841723000005004,194,77,f,new,1,1,3,0.18386060000193538,0,2020_Jan_18_1310,builder_test,3.2.4,60.08737906745351,100,
0,-1,-1,0,j,0.9340574999951059,195,233,o,old,0,1,3,0.16793630000029225,0,2020_Jan_18_1310,builder_test,3.2.4,60.08737906745351,100,
0,-1,-1,0,f,1.8340969999990193,196,177,f,new,0,1,3,0.1886307999957353,0,2020_Jan_18_1310,builder_test,3.2.4,60.08737906745351,100,
0,-1,-1,0,j,2.7004283999995096,197,127,f,old,0,1,3,0.1007543000014266,0,2020_Jan_18_1310,builder_test,3.2.4,60.08737906745351,100,
0,-1,-1,0,j,3.5833715999979177,198,61,o,old,0,1,3,0.21732150000025285,0,2020_Jan_18_1310,builder_test,3.2.4,60.08737906745351,100,
0,-1,-1,0,j,1.1510941999949864,199,172,o,new,1,1,3,0.35043600000062725,0,2020_Jan_18_1310,builder_test,3.2.4,60.08737906745351,100,
0,-1,-1,0,j,1.133688499998243,200,209,f,new,1,1,3,0.33327409999765223,0,2020_Jan_18_1310,builder_test,3.2.4,60.08737906745351,100,
0,-1,-1,0,f,0.933591199995135,201,279,o,old,1,1,4,0.4342513000010513,0,2020_Jan_18_1310,builder_test,3.2.4,60.08737906745351,100,
0,-1,-1,0,f,1.3840786000000662,202,252,f,old,1,1,3,0.38403549999929965,0,2020_Jan_18_1310,builder_test,3.2.4,60.08737906745351,100,
0,-1,-1,0,j,3.0004002999994555,203,123,f,old,0,1,3,0.18474289999721805,0,2020_Jan_18_1310,builder_test,3.2.4,60.08737906745351,100,
0,-1,-1,0,j,3.55054779999773,204,16,f,old,0,1,3,0.1667029000018374,0,2020_Jan_18_1310,builder_test,3.2.4,60.08737906745351,100,
0,-1,-1,0,f,1.700498800004425,205,108,o,old,1,1,3,0.45049940000171773,0,2020_Jan_18_1310,builder_test,3.2.4,60.08737906745351,100,
0,-1,-1,0,f,1.0012801999982912,206,68,o,old,1,1,4,0.30068769999343203,0,2020_Jan_18_1310,builder_test,3.2.4,60.08737906745351,100,
0,-1,-1,0,j,1.1872812999936286,207,57,o,new,1,1,3,0.3508311999976286,0,2020_Jan_18_1310,builder_test,3.2.4,60.08737906745351,100,
0,-1,-1,0,f,0.8503357000008691,208,20,o,old,1,1,4,0.2672067000021343,0,2020_Jan_18_1310,builder_test,3.2.4,60.08737906745351,100,
0,-1,-1,0,f,0.784105400001863,209,152,o,old,1,1,4,0.1842938999980106,0,2020_Jan_18_1310,builder_test,3.2.4,60.08737906745351,100,
0,-1,-1,0,f,1.034066599997459,210,240,f,old,1,1,4,0.583458499997505,0,2020_Jan_18_1310,builder_test,3.2.4,60.08737906745351,100,
0,-1,-1,0,j,0.852067599997099,211,289,f,new,1,1,3,0.2509162999995169,0,2020_Jan_18_1310,builder_test,3.2.4,60.08737906745351,100,
0,-1,-1,0,f,0.6510545000055572,212,249,o,old,1,1,4,0.26708399999915855,0,2020_Jan_18_1310,builder_test,3.2.4,60.08737906745351,100,
0,-1,-1,0,j,1.850991300001624,213,35,f,old,0,1,3,0.5183431999976165,0,2020_Jan_18_1310,builder_test,3.2.4,60.08737906745351,100,
0,-1,-1,0,f,2.067307500001334,214,82,o,new,0,1,3,1.433197400001518,0,2020_Jan_18_1310,builder_test,3.2.4,60.08737906745351,100,
0,-1,-1,0,f,2.633803099997749,215,52,o,new,0,1,3,1.0339088999971864,0,2020_Jan_18_1310,builder_test,3.2.4,60.08737906745351,100,
0,-1,-1,0,j,1.0203377999932854,216,99,f,old,0,1,3,1.5512300999980653,0,2020_Jan_18_1310,builder_test,3.2.4,60.08737906745351,100,
0,-1,-1,0,j,1.0175021000031848,217,140,f,new,1,1,3,0.1371925999992527,0,2020_Jan_18_1310,builder_test,3.2.4,60.08737906745351,100,
0,-1,-1,0,j,0.7497829999992973,218,32,f,old,0,1,3,0.11739619999571005,0,2020_Jan_18_1310,builder_test,3.2.4,60.08737906745351,100,
0,-1,-1,0,f,0.8177265000049374,219,4,o,old,1,1,4,0.23547400000097696,0,2020_Jan_18_1310,builder_test,3.2.4,60.08737906745351,100,
0,-1,-1,0,f,3.9502422000005026,220,195,f,new,0,1,4,0.08433180000429275,0,2020_Jan_18_1310,builder_test,3.2.4,60.08737906745351,100,
0,-1,-1,0,f,1.017145599995274,221,99,o,old,1,1,4,0.21685489999799756,0,2020_Jan_18_1310,builder_test,3.2.4,60.08737906745351,100,
0,-1,-1,0,j,0.8675915999992867,222,214,f,old,0,1,3,0.1507188999967184,0,2020_Jan_18_1310,builder_test,3.2.4,60.08737906745351,100,
0,-1,-1,0,j,0.5675364999988233,223,248,f,old,0,1,3,0.10076090000075055,0,2020_Jan_18_1310,builder_test,3.2.4,60.08737906745351,100,
0,-1,-1,0,j,0.5338591999970959,224,186,f,new,1,1,3,0.25108449999970617,0,2020_Jan_18_1310,builder_test,3.2.4,60.08737906745351,100,
0,-1,-1,0,j,0.8337533999947482,225,113,o,old,0,1,3,0.16721559999859892,0,2020_Jan_18_1310,builder_test,3.2.4,60.08737906745351,100,
0,-1,-1,0,j,2.2837127999955555,226,104,f,old,0,1,3,0.15052819999982603,0,2020_Jan_18_1310,builder_test,3.2.4,60.08737906745351,100,
0,-1,-1,0,f,0.6166267999942647,227,116,o,old,1,1,4,0.23410589999548392,0,2020_Jan_18_1310,builder_test,3.2.4,60.08737906745351,100,
0,-1,-1,0,j,0.9174328000008245,228,179,f,old,0,1,3,0.18389939999906346,0,2020_Jan_18_1310,builder_test,3.2.4,60.08737906745351,100,
0,-1,-1,0,j,1.1340029999992112,229,89,f,new,1,1,3,0.11747919999470469,0,2020_Jan_18_1310,builder_test,3.2.4,60.08737906745351,100,
0,-1,-1,0,j,1.0838492000038968,230,48,f,old,0,1,3,0.11770330000581453,0,2020_Jan_18_1310,builder_test,3.2.4,60.08737906745351,100,
0,-1,-1,0,f,3.9834113999968395,231,3,o,old,1,1,4,0.2837195999964024,0,2020_Jan_18_1310,builder_test,3.2.4,60.08737906745351,100,
0,-1,-1,0,j,0.9670839000027627,232,9,o,new,1,1,3,0.2007207999995444,0,2020_Jan_18_1310,builder_test,3.2.4,60.08737906745351,100,
0,-1,-1,0,j,1.6354356999945594,233,27,f,new,1,1,3,0.13523279999935767,0,2020_Jan_18_1310,builder_test,3.2.4,60.08737906745351,100,
0,-1,-1,0,j,0.917304199996579,234,110,o,old,0,1,3,0.13356809999822872,0,2020_Jan_18_1310,builder_test,3.2.4,60.08737906745351,100,
0,-1,-1,0,j,0.8172975000052247,235,87,o,old,0,1,3,0.11704219999955967,0,2020_Jan_18_1310,builder_test,3.2.4,60.08737906745351,100,
0,-1,-1,0,f,0.88433420000365,236,127,o,old,1,1,3,0.7007604000027641,0,2020_Jan_18_1310,builder_test,3.2.4,60.08737906745351,100,
0,-1,-1,0,f,0.8016250000000582,237,250,o,old,1,1,4,0.23391909999918425,0,2020_Jan_18_1310,builder_test,3.2.4,60.08737906745351,100,
0,-1,-1,0,j,0.8843204000004334,238,206,f,old,0,1,3,0.13441730000340613,0,2020_Jan_18_1310,builder_test,3.2.4,60.08737906745351,100,
0,-1,-1,0,f,1.8669940999971004,239,120,o,old,1,1,3,2.833440200003679,0,2020_Jan_18_1310,builder_test,3.2.4,60.08737906745351,100,
0,-1,-1,0,j,4.667122799997742,240,53,f,old,0,1,3,0.0509031000037794,0,2020_Jan_18_1310,builder_test,3.2.4,60.08737906745351,100,
0,-1,-1,0,j,0.9000841999950353,241,41,o,new,1,1,3,0.03640319999976782,0,2020_Jan_18_1310,builder_test,3.2.4,60.08737906745351,100,
0,-1,-1,0,j,1.2333702000032645,242,94,o,new,1,1,3,0.2669999999998254,0,2020_Jan_18_1310,builder_test,3.2.4,60.08737906745351,100,
0,-1,-1,0,j,0.9998477999979514,243,279,f,old,0,1,3,0.2174985999954515,0,2020_Jan_18_1310,builder_test,3.2.4,60.08737906745351,100,
0,-1,-1,0,j,1.0679040999966674,244,171,f,old,0,1,3,0.5506970999995247,0,2020_Jan_18_1310,builder_test,3.2.4,60.08737906745351,100,
0,-1,-1,0,f,0.9173367999974289,245,140,o,old,1,1,4,0.3176372000016272,0,2020_Jan_18_1310,builder_test,3.2.4,60.08737906745351,100,
0,-1,-1,0,j,2.2528893999988213,246,112,f,new,1,1,3,0.3045544999986305,0,2020_Jan_18_1310,builder_test,3.2.4,60.08737906745351,100,
0,-1,-1,0,j,0.9004334999990533,247,135,f,new,1,1,3,0.2840788999965298,0,2020_Jan_18_1310,builder_test,3.2.4,60.08737906745351,100,
0,-1,-1,0,f,4.350536800004193,248,269,o,old,1,1,3,0.26723080000374466,0,2020_Jan_18_1310,builder_test,3.2.4,60.08737906745351,100,
0,-1,-1,0,f,1.3669756000017514,249,259,f,old,1,1,3,0.4676802000030875,0,2020_Jan_18_1310,builder_test,3.2.4,60.08737906745351,100,
0,-1,-1,0,f,1.4509178000007523,250,184,o,old,1,1,3,0.2836736000026576,0,2020_Jan_18_1310,builder_test,3.2.4,60.08737906745351,100,
0,-1,-1,0,f,2.6337358000018867,251,137,f,old,1,1,3,0.28402570000616834,0,2020_Jan_18_1310,builder_test,3.2.4,60.08737906745351,100,
0,-1,-1,0,f,1.1832107999944128,252,4,f,old,1,1,3,0.2506939999948372,0,2020_Jan_18_1310,builder_test,3.2.4,60.08737906745351,100,
0,-1,-1,0,j,1.3832551000014064,253,28,o,old,0,1,3,0.2670564000000013,0,2020_Jan_18_1310,builder_test,3.2.4,60.08737906745351,100,
0,-1,-1,0,j,1.8698005999976886,254,291,o,new,1,1,3,0.2012137999990955,0,2020_Jan_18_1310,builder_test,3.2.4,60.08737906745351,100,
0,-1,-1,0,f,6.166655400003947,255,75,f,old,1,1,3,0.33376350000617094,0,2020_Jan_18_1310,builder_test,3.2.4,60.08737906745351,100,
0,-1,-1,0,f,1.2836681000044337,256,225,o,old,1,1,3,0.30059590000018943,0,2020_Jan_18_1310,builder_test,3.2.4,60.08737906745351,100,
0,-1,-1,0,j,1.3162968999968143,257,241,o,old,0,1,3,0.10059980000369251,0,2020_Jan_18_1310,builder_test,3.2.4,60.08737906745351,100,
0,-1,-1,0,f,0.6670653000037419,258,243,o,old,1,1,3,0.5003919999944628,0,2020_Jan_18_1310,builder_test,3.2.4,60.08737906745351,100,
0,-1,-1,0,j,0.8522856999989017,259,265,o,new,1,1,3,0.3673191999987466,0,2020_Jan_18_1310,builder_test,3.2.4,60.08737906745351,100,
0,-1,-1,0,j,1.267337299999781,260,182,f,old,0,1,3,0.13469130000157747,0,2020_Jan_18_1310,builder_test,3.2.4,60.08737906745351,100,
0,-1,-1,0,j,0.7841561000022921,261,65,f,old,0,1,3,0.13432499999908032,0,2020_Jan_18_1310,builder_test,3.2.4,60.08737906745351,100,
0,-1,-1,0,j,2.050816000002669,262,130,o,old,0,1,3,0.08423770000081277,0,2020_Jan_18_1310,builder_test,3.2.4,60.08737906745351,100,
0,-1,-1,0,j,0.7342131999976118,263,149,f,new,1,1,3,0.11746349999884842,0,2020_Jan_18_1310,builder_test,3.2.4,60.08737906745351,100,
0,-1,-1,0,j,0.8835479999979725,264,134,o,old,0,1,3,0.4172714000014821,0,2020_Jan_18_1310,builder_test,3.2.4,60.08737906745351,100,
0,-1,-1,0,j,0.7201038999992306,265,19,o,new,1,1,3,0.23396990000037476,0,2020_Jan_18_1310,builder_test,3.2.4,60.08737906745351,100,
0,-1,-1,0,f,5.536570600001141,266,10,f,new,0,1,3,0.39949190000334056,0,2020_Jan_18_1310,builder_test,3.2.4,60.08737906745351,100,
0,-1,-1,0,j,0.8675143000000389,267,219,o,new,1,1,3,0.18394679999619257,0,2020_Jan_18_1310,builder_test,3.2.4,60.08737906745351,100,
0,-1,-1,0,j,2.400168100000883,268,109,f,old,0,1,3,0.25043490000098245,0,2020_Jan_18_1310,builder_test,3.2.4,60.08737906745351,100,
0,-1,-1,0,f,2.267167799996969,269,80,f,old,1,1,3,0.2342419999986305,0,2020_Jan_18_1310,builder_test,3.2.4,60.08737906745351,100,
0,-1,-1,0,j,1.133357700004126,270,107,f,old,0,1,3,0.3507319999989704,0,2020_Jan_18_1310,builder_test,3.2.4,60.08737906745351,100,
0,-1,-1,0,j,1.850886400003219,271,111,o,old,0,1,3,0.13364569999976084,0,2020_Jan_18_1310,builder_test,3.2.4,60.08737906745351,100,
0,-1,-1,0,f,1.2007787999973516,272,213,f,old,1,1,3,0.1842936999964877,0,2020_Jan_18_1310,builder_test,3.2.4,60.08737906745351,100,
0,-1,-1,0,f,1.117079499999818,273,154,o,old,1,1,4,0.2009353999965242,0,2020_Jan_18_1310,builder_test,3.2.4,60.08737906745351,100,
0,-1,-1,0,j,0.9185354000001098,274,25,f,new,1,1,3,0.18725070000073174,0,2020_Jan_18_1310,builder_test,3.2.4,60.08737906745351,100,
0,-1,-1,0,j,2.6340828000029433,275,148,o,new,1,1,3,0.18376550000539282,0,2020_Jan_18_1310,builder_test,3.2.4,60.08737906745351,100,
0,-1,-1,0,f,3.6339482000039425,276,67,o,old,1,1,4,0.3695806999967317,0,2020_Jan_18_1310,builder_test,3.2.4,60.08737906745351,100,
0,-1,-1,0,f,1.3038813999955892,277,36,f,old,1,1,4,0.38622380000015255,0,2020_Jan_18_1310,builder_test,3.2.4,60.08737906745351,100,
0,-1,-1,0,f,0.7170899999982794,278,155,o,old,1,1,4,0.40069429999857675,0,2020_Jan_18_1310,builder_test,3.2.4,60.08737906745351,100,
0,-1,-1,0,f,3.300292400002945,279,185,o,old,1,1,3,0.2335659000018495,0,2020_Jan_18_1310,builder_test,3.2.4,60.08737906745351,100,
0,-1,-1,0,j,1.1333708000020124,280,132,f,old,0,1,3,0.20096280000143452,0,2020_Jan_18_1310,builder_test,3.2.4,60.08737906745351,100,
0,-1,-1,0,j,1.73406999999861,281,207,o,new,1,1,3,0.6000635000018519,0,2020_Jan_18_1310,builder_test,3.2.4,60.08737906745351,100,
0,-1,-1,0,j,1.3504717000032542,282,275,f,old,0,1,3,0.13443489999917801,0,2020_Jan_18_1310,builder_test,3.2.4,60.08737906745351,100,
0,-1,-1,0,f,0.8341168999977526,283,235,o,old,1,1,4,0.25125649999972666,0,2020_Jan_18_1310,builder_test,3.2.4,60.08737906745351,100,
0,-1,-1,0,f,1.6173678999984986,284,221,o,old,1,1,3,0.20047250000061467,0,2020_Jan_18_1310,builder_test,3.2.4,60.08737906745351,100,
0,-1,-1,0,j,2.5499781000035,285,230,f,old,0,1,3,0.11776110000209883,0,2020_Jan_18_1310,builder_test,3.2.4,60.08737906745351,100,
0,-1,-1,0,f,1.3494333999988157,286,191,f,old,1,1,3,0.23387329999968642,0,2020_Jan_18_1310,builder_test,3.2.4,60.08737906745351,100,
0,-1,-1,0,j,1.1164179999977932,287,223,o,new,1,1,3,0.11718970000219997,0,2020_Jan_18_1310,builder_test,3.2.4,60.08737906745351,100,
0,-1,-1,0,j,1.3520863999947323,288,208,f,old,0,1,3,0.15452730000106385,0,2020_Jan_18_1310,builder_test,3.2.4,60.08737906745351,100,
0,-1,-1,0,j,0.9011702999996487,289,66,o,old,0,1,3,0.1347754999951576,0,2020_Jan_18_1310,builder_test,3.2.4,60.08737906745351,100,
0,-1,-1,0,j,1.0996467000004486,290,79,o,new,1,1,3,1.4666870000000927,0,2020_Jan_18_1310,builder_test,3.2.4,60.08737906745351,100,
0,-1,-1,0,j,1.1169089999966673,291,246,f,old,0,1,3,0.1174479999972391,0,2020_Jan_18_1310,builder_test,3.2.4,60.08737906745351,100,
0,-1,-1,0,j,0.55125340000086,292,78,f,new,1,1,3,0.06941859999642475,0,2020_Jan_18_1310,builder_test,3.2.4,60.08737906745351,100,
0,-1,-1,0,j,0.6828008000011323,293,151,f,old,0,1,3,0.08414920000359416,0,2020_Jan_18_1310,builder_test,3.2.4,60.08737906745351,100,
0,-1,-1,0,f,1.1005786000023363,294,51,o,old,1,1,4,0.21711060000234284,0,2020_Jan_18_1310,builder_test,3.2.4,60.08737906745351,100,
