nback_loop.thisRepN,nback_loop.thisTrialN,nback_loop.thisN,nback_loop.thisIndex,key_resp_nback.keys,nback_level,target_cat,face_img,object_img,response_corr,trial_num,block_trial_num,block_num,target_repeat,lure_repeat,block_order,first_screen_time_elapsed,total_time_elapsed,key_resp_nback.rt,participant,date,expName,psychopyVersion,frameRate,age,
,,,,,,,,,,,,,,,,,,,33,2019_Aug_26_1613,builder_test,3.0.0b12,59.97841370054904,21,
,,,,,,,,,,,,,,,,,,,33,2019_Aug_26_1613,builder_test,3.0.0b12,59.97841370054904,21,
,,,,,,,,,,,,,,,,,,,33,2019_Aug_26_1613,builder_test,3.0.0b12,59.97841370054904,21,
,,,,,,,,,,,,,,,,,,,33,2019_Aug_26_1613,builder_test,3.0.0b12,59.97841370054904,21,
0,0,0,0,None,1,face,325,120,1,1,1,1,0,0,FOFO,15.932719829041162,35.43510106267058,,33,2019_Aug_26_1613,builder_test,3.0.0b12,59.97841370054904,21,
0,1,1,1,None,1,face,160,297,1,2,2,1,0,0,FOFO,18.18266540931654,37.685047433071304,,33,2019_Aug_26_1613,builder_test,3.0.0b12,59.97841370054904,21,
0,2,2,2,None,1,face,382,78,1,3,3,1,0,0,FOFO,20.43238540942548,39.934767038110294,,33,2019_Aug_26_1613,builder_test,3.0.0b12,59.97841370054904,21,
0,3,3,3,None,1,face,204,239,1,4,4,1,0,0,FOFO,22.682340866231243,42.18472012455459,,33,2019_Aug_26_1613,builder_test,3.0.0b12,59.97841370054904,21,
0,4,4,4,None,1,face,72,428,1,5,5,1,0,0,FOFO,24.932270644028904,44.43465306285361,,33,2019_Aug_26_1613,builder_test,3.0.0b12,59.97841370054904,21,
0,5,5,5,None,1,face,154,428,1,6,6,1,0,1,FOFO,27.1821411626006,46.68452279129997,,33,2019_Aug_26_1613,builder_test,3.0.0b12,59.97841370054904,21,
0,6,6,6,None,1,face,346,293,1,7,7,1,0,0,FOFO,29.432025113273994,48.93440674195881,,33,2019_Aug_26_1613,builder_test,3.0.0b12,59.97841370054904,21,
0,7,7,7,space,1,face,346,278,1,8,8,1,1,0,FOFO,31.68199005155475,51.184371680239565,0.7496953087684233,33,2019_Aug_26_1613,builder_test,3.0.0b12,59.97841370054904,21,
0,8,8,8,None,1,face,354,345,1,9,9,1,0,0,FOFO,33.93192694046593,53.434308569165296,,33,2019_Aug_26_1613,builder_test,3.0.0b12,59.97841370054904,21,
0,9,9,9,None,1,face,30,106,1,10,10,1,0,0,FOFO,36.181354595013545,55.6837370138237,,33,2019_Aug_26_1613,builder_test,3.0.0b12,59.97841370054904,21,
0,10,10,10,None,1,face,18,509,1,11,11,1,0,0,FOFO,38.43152654556616,57.9339061989449,,33,2019_Aug_26_1613,builder_test,3.0.0b12,59.97841370054904,21,
0,11,11,11,None,1,face,371,509,1,12,12,1,0,1,FOFO,40.68145158262632,60.183831236019614,,33,2019_Aug_26_1613,builder_test,3.0.0b12,59.97841370054904,21,
0,12,12,12,space,1,face,371,499,1,13,13,1,1,0,FOFO,42.93153306408203,62.43391429771145,0.7754102615726879,33,2019_Aug_26_1613,builder_test,3.0.0b12,59.97841370054904,21,
0,13,13,13,None,1,face,245,241,1,14,14,1,0,0,FOFO,45.181255039497046,64.68363666819641,,33,2019_Aug_26_1613,builder_test,3.0.0b12,59.97841370054904,21,
0,14,14,14,space,1,face,245,241,1,15,15,1,1,1,FOFO,47.43122274320922,66.93360476696398,0.556019138355623,33,2019_Aug_26_1613,builder_test,3.0.0b12,59.97841370054904,21,
0,15,15,15,None,1,face,258,179,1,16,16,1,0,0,FOFO,49.6811853111285,69.18356693982787,,33,2019_Aug_26_1613,builder_test,3.0.0b12,59.97841370054904,21,
0,16,16,16,None,1,face,408,385,1,17,17,1,0,0,FOFO,51.931161706204875,71.43354096452822,,33,2019_Aug_26_1613,builder_test,3.0.0b12,59.97841370054904,21,
0,17,17,17,None,1,face,103,51,1,18,18,1,0,0,FOFO,54.18088447174523,73.68326649549999,,33,2019_Aug_26_1613,builder_test,3.0.0b12,59.97841370054904,21,
0,18,18,18,None,1,face,232,8,1,19,19,1,0,0,FOFO,56.43090116309759,75.9332827917824,,33,2019_Aug_26_1613,builder_test,3.0.0b12,59.97841370054904,21,
0,19,19,19,space,1,face,232,8,1,20,20,1,1,1,FOFO,58.68074007674295,78.18312170542777,0.6064021307975054,33,2019_Aug_26_1613,builder_test,3.0.0b12,59.97841370054904,21,
0,20,20,20,None,1,face,16,169,1,21,21,1,0,0,FOFO,60.93072555822437,80.43311627332878,,33,2019_Aug_26_1613,builder_test,3.0.0b12,59.97841370054904,21,
0,21,21,21,None,1,face,162,336,1,22,22,1,0,0,FOFO,63.18050481757382,82.68288644625864,,33,2019_Aug_26_1613,builder_test,3.0.0b12,59.97841370054904,21,
0,22,22,22,None,1,face,79,336,1,23,23,1,0,1,FOFO,65.4305321755819,84.93291380428127,,33,2019_Aug_26_1613,builder_test,3.0.0b12,59.97841370054904,21,
0,23,23,23,None,1,face,319,198,1,24,24,1,0,0,FOFO,67.68040466945968,87.18278708828439,,33,2019_Aug_26_1613,builder_test,3.0.0b12,59.97841370054904,21,
0,24,24,24,space,1,face,319,133,1,25,25,1,1,0,FOFO,69.93009227453149,89.4324739032163,0.6472159418481169,33,2019_Aug_26_1613,builder_test,3.0.0b12,59.97841370054904,21,
0,25,25,25,None,1,face,320,261,1,26,26,1,0,0,FOFO,72.18012239797099,91.6825040266558,,33,2019_Aug_26_1613,builder_test,3.0.0b12,59.97841370054904,21,
0,26,26,26,None,1,face,265,195,1,27,27,1,0,0,FOFO,74.42989968201437,93.93228131069918,,33,2019_Aug_26_1613,builder_test,3.0.0b12,59.97841370054904,21,
0,27,27,27,None,1,face,257,139,1,28,28,1,0,0,FOFO,76.68086570632295,96.18324773007771,,33,2019_Aug_26_1613,builder_test,3.0.0b12,59.97841370054904,21,
0,28,28,28,None,1,face,145,263,1,29,29,1,0,0,FOFO,78.92990501533495,98.43228624896437,,33,2019_Aug_26_1613,builder_test,3.0.0b12,59.97841370054904,21,
0,29,29,29,space,1,face,145,339,1,30,30,1,1,0,FOFO,81.1797194351675,100.68210106385231,0.8008858070534188,33,2019_Aug_26_1613,builder_test,3.0.0b12,59.97841370054904,21,
0,30,30,30,None,1,face,372,140,1,31,31,1,0,0,FOFO,83.4295761265821,102.93195815033687,,33,2019_Aug_26_1613,builder_test,3.0.0b12,59.97841370054904,21,
0,31,31,31,space,1,face,372,503,1,32,32,1,1,0,FOFO,85.67959439818515,105.18197602686996,0.6850075318507152,33,2019_Aug_26_1613,builder_test,3.0.0b12,59.97841370054904,21,
0,32,32,32,None,1,face,58,252,1,33,33,1,0,0,FOFO,87.92920141067589,107.43158106406918,,33,2019_Aug_26_1613,builder_test,3.0.0b12,59.97841370054904,21,
0,33,33,33,None,1,face,226,303,1,34,34,1,0,0,FOFO,90.17938205257815,109.68176368127752,,33,2019_Aug_26_1613,builder_test,3.0.0b12,59.97841370054904,21,
0,34,34,34,None,1,face,180,165,1,35,35,1,0,0,FOFO,92.42916486748436,111.93154689123912,,33,2019_Aug_26_1613,builder_test,3.0.0b12,59.97841370054904,21,
0,35,35,35,None,1,face,81,489,1,36,36,1,0,0,FOFO,94.67902471938578,114.18140634808515,,33,2019_Aug_26_1613,builder_test,3.0.0b12,59.97841370054904,21,
0,36,36,36,space,1,face,81,489,1,37,37,1,1,1,FOFO,96.92897859595541,116.43136061971018,0.5589836803992512,33,2019_Aug_26_1613,builder_test,3.0.0b12,59.97841370054904,21,
0,37,37,37,None,1,face,64,162,1,38,38,1,0,0,FOFO,99.1784086208645,118.68079024956387,,33,2019_Aug_26_1613,builder_test,3.0.0b12,59.97841370054904,21,
0,38,38,38,None,1,face,352,162,1,39,39,1,0,1,FOFO,101.42856358377321,120.93094521245803,,33,2019_Aug_26_1613,builder_test,3.0.0b12,59.97841370054904,21,
0,39,39,39,space,1,face,352,418,1,40,40,1,1,0,FOFO,103.67858383068233,123.18096585443709,0.7244986767327646,33,2019_Aug_26_1613,builder_test,3.0.0b12,59.97841370054904,21,
0,40,40,40,None,1,face,119,24,1,41,41,1,0,0,FOFO,105.928556275132,125.43093592851073,,33,2019_Aug_26_1613,builder_test,3.0.0b12,59.97841370054904,21,
0,41,41,41,None,1,face,176,423,1,42,42,1,0,0,FOFO,108.17850225046277,127.68088111371617,,33,2019_Aug_26_1613,builder_test,3.0.0b12,59.97841370054904,21,
0,42,42,42,None,1,face,44,331,1,43,43,1,0,0,FOFO,110.42832338633889,129.93070541009365,,33,2019_Aug_26_1613,builder_test,3.0.0b12,59.97841370054904,21,
0,43,43,43,None,1,face,17,379,1,44,44,1,0,0,FOFO,112.67847321344016,132.18085484212497,,33,2019_Aug_26_1613,builder_test,3.0.0b12,59.97841370054904,21,
0,44,44,44,None,1,face,168,39,1,45,45,1,0,0,FOFO,114.92805296668666,134.4304582990735,,33,2019_Aug_26_1613,builder_test,3.0.0b12,59.97841370054904,21,
0,45,45,45,None,1,face,384,404,1,46,46,1,0,0,FOFO,117.17802343583026,136.68040506452962,,33,2019_Aug_26_1613,builder_test,3.0.0b12,59.97841370054904,21,
0,46,46,46,None,1,face,277,4,1,47,47,1,0,0,FOFO,119.42773988039698,138.93012032390106,,33,2019_Aug_26_1613,builder_test,3.0.0b12,59.97841370054904,21,
0,47,47,47,None,1,face,135,474,1,48,48,1,0,0,FOFO,121.67807222594274,141.18047202746675,,33,2019_Aug_26_1613,builder_test,3.0.0b12,59.97841370054904,21,
0,48,48,48,space,1,face,135,405,1,49,49,1,1,0,FOFO,123.92763696685142,143.43001662024471,0.7334254880261142,33,2019_Aug_26_1613,builder_test,3.0.0b12,59.97841370054904,21,
0,49,49,49,None,1,face,369,201,1,50,50,1,0,0,FOFO,126.17748891752854,145.6798709412833,,33,2019_Aug_26_1613,builder_test,3.0.0b12,59.97841370054904,21,
0,50,50,50,None,1,face,287,229,1,51,51,1,0,0,FOFO,128.42744200397283,147.9298240277276,,33,2019_Aug_26_1613,builder_test,3.0.0b12,59.97841370054904,21,
0,51,51,51,space,1,face,287,448,1,52,52,1,1,0,FOFO,130.67744565829344,150.17982728697825,0.44384021971200127,33,2019_Aug_26_1613,builder_test,3.0.0b12,59.97841370054904,21,
0,52,52,52,None,1,face,411,412,1,53,53,1,0,0,FOFO,132.92722294232226,152.4296022006456,,33,2019_Aug_26_1613,builder_test,3.0.0b12,59.97841370054904,21,
0,53,53,53,None,1,face,153,459,1,54,54,1,0,0,FOFO,135.1771246707649,154.67950669451966,,33,2019_Aug_26_1613,builder_test,3.0.0b12,59.97841370054904,21,
0,54,54,54,space,1,face,153,117,1,55,55,1,1,0,FOFO,137.42665504131583,156.92904536136484,0.6382452787220245,33,2019_Aug_26_1613,builder_test,3.0.0b12,59.97841370054904,21,
0,55,55,55,None,1,face,19,340,1,56,56,1,0,0,FOFO,139.67680684372317,159.17918886747793,,33,2019_Aug_26_1613,builder_test,3.0.0b12,59.97841370054904,21,
0,56,56,56,None,1,face,299,215,1,57,57,1,0,0,FOFO,141.92756190514774,161.42994432397245,,33,2019_Aug_26_1613,builder_test,3.0.0b12,59.97841370054904,21,
0,57,57,57,None,1,face,256,215,1,58,58,1,0,1,FOFO,144.17690817701805,163.67928980570287,,33,2019_Aug_26_1613,builder_test,3.0.0b12,59.97841370054904,21,
0,58,58,58,None,1,face,231,433,1,59,59,1,0,0,FOFO,146.4263935105555,165.92877513924032,,33,2019_Aug_26_1613,builder_test,3.0.0b12,59.97841370054904,21,
0,59,59,59,None,1,face,240,433,1,60,60,1,0,1,FOFO,148.67665988081717,168.1790407193912,,33,2019_Aug_26_1613,builder_test,3.0.0b12,59.97841370054904,21,
0,60,60,60,space,1,face,240,492,1,61,61,1,1,0,FOFO,150.92623528839613,170.42861691708094,0.699959427176509,33,2019_Aug_26_1613,builder_test,3.0.0b12,59.97841370054904,21,
0,61,61,61,None,1,face,374,163,1,62,62,1,0,0,FOFO,153.1762551402353,172.67863676893467,,33,2019_Aug_26_1613,builder_test,3.0.0b12,59.97841370054904,21,
0,62,62,62,None,1,face,416,163,1,63,63,1,0,1,FOFO,155.4260857575864,174.92846738628577,,33,2019_Aug_26_1613,builder_test,3.0.0b12,59.97841370054904,21,
0,63,63,63,None,1,face,318,389,1,64,64,1,0,0,FOFO,157.67606570821954,177.1784477319743,,33,2019_Aug_26_1613,builder_test,3.0.0b12,59.97841370054904,21,
0,64,64,64,None,1,face,283,326,1,65,65,1,0,0,FOFO,159.92606659710873,179.42844822579355,,33,2019_Aug_26_1613,builder_test,3.0.0b12,59.97841370054904,21,
0,65,65,65,None,1,face,403,49,1,66,66,1,0,0,FOFO,162.17587904162065,181.6782610653754,,33,2019_Aug_26_1613,builder_test,3.0.0b12,59.97841370054904,21,
0,66,66,66,None,1,face,344,310,1,67,67,1,0,0,FOFO,164.4257965725119,183.92817780615587,,33,2019_Aug_26_1613,builder_test,3.0.0b12,59.97841370054904,21,
0,67,67,67,None,1,face,255,310,1,68,68,1,0,1,FOFO,166.6756591898593,186.1780408185441,,33,2019_Aug_26_1613,builder_test,3.0.0b12,59.97841370054904,21,
0,68,68,68,None,1,face,97,145,1,69,69,1,0,0,FOFO,168.92539222699997,188.4277738556848,,33,2019_Aug_26_1613,builder_test,3.0.0b12,59.97841370054904,21,
0,69,69,69,None,1,face,399,391,1,70,70,1,0,0,FOFO,171.17539785662666,190.67777948532603,,33,2019_Aug_26_1613,builder_test,3.0.0b12,59.97841370054904,21,
0,70,70,70,None,1,face,273,277,1,71,71,1,0,0,FOFO,173.42543232574826,192.927811979127,,33,2019_Aug_26_1613,builder_test,3.0.0b12,59.97841370054904,21,
0,71,71,71,None,1,face,401,449,1,72,72,1,0,0,FOFO,175.67532417764596,195.17770580633078,,33,2019_Aug_26_1613,builder_test,3.0.0b12,59.97841370054904,21,
0,72,72,72,None,1,face,164,449,1,73,73,1,0,1,FOFO,177.92513662215788,197.42751864591264,,33,2019_Aug_26_1613,builder_test,3.0.0b12,59.97841370054904,21,
0,73,73,73,space,1,face,164,457,1,74,74,1,1,0,FOFO,180.17501227653702,199.67739390522183,0.6214768902864307,33,2019_Aug_26_1613,builder_test,3.0.0b12,59.97841370054904,21,
0,74,74,74,None,1,face,128,338,1,75,75,1,0,0,FOFO,182.42488990620768,201.92727153490705,,33,2019_Aug_26_1613,builder_test,3.0.0b12,59.97841370054904,21,
0,75,75,75,None,1,face,341,22,1,76,76,1,0,0,FOFO,184.67486195560195,204.17725859663915,,33,2019_Aug_26_1613,builder_test,3.0.0b12,59.97841370054904,21,
0,76,76,76,None,1,face,348,333,1,77,77,1,0,0,FOFO,186.92480595562665,206.4271856090054,,33,2019_Aug_26_1613,builder_test,3.0.0b12,59.97841370054904,21,
0,77,77,77,None,1,face,100,333,1,78,78,1,0,1,FOFO,189.17419370895368,208.67657533765305,,33,2019_Aug_26_1613,builder_test,3.0.0b12,59.97841370054904,21,
0,78,78,78,None,1,face,278,365,1,79,79,1,0,0,FOFO,191.42442136319005,210.92680299187487,,33,2019_Aug_26_1613,builder_test,3.0.0b12,59.97841370054904,21,
0,79,79,79,None,1,face,238,34,1,80,80,1,0,0,FOFO,193.67441079528362,213.176792423983,,33,2019_Aug_26_1613,builder_test,3.0.0b12,59.97841370054904,21,
0,80,80,80,None,1,face,241,251,1,81,81,1,0,0,FOFO,195.9243950915843,215.42679370792757,,33,2019_Aug_26_1613,builder_test,3.0.0b12,59.97841370054904,21,
0,81,81,81,None,1,face,233,312,1,82,82,1,0,0,FOFO,198.17425889411243,217.6766405228118,,33,2019_Aug_26_1613,builder_test,3.0.0b12,59.97841370054904,21,
0,82,82,82,None,1,face,178,207,1,83,83,1,0,0,FOFO,200.42397020287171,219.92635183155653,,33,2019_Aug_26_1613,builder_test,3.0.0b12,59.97841370054904,21,
0,83,83,83,None,1,face,397,207,1,84,84,1,0,1,FOFO,202.67398570904334,222.17636773278355,,33,2019_Aug_26_1613,builder_test,3.0.0b12,59.97841370054904,21,
0,84,84,84,None,1,face,193,161,1,85,85,1,0,0,FOFO,204.9238676843961,224.42624970815086,,33,2019_Aug_26_1613,builder_test,3.0.0b12,59.97841370054904,21,
0,85,85,85,space,1,face,193,322,1,86,86,1,1,0,FOFO,207.173919536217,226.67630155997176,0.6210047916974872,33,2019_Aug_26_1613,builder_test,3.0.0b12,59.97841370054904,21,
0,86,86,86,None,1,face,69,187,1,87,87,1,0,0,FOFO,209.42336457347847,228.92574738735857,,33,2019_Aug_26_1613,builder_test,3.0.0b12,59.97841370054904,21,
0,87,87,87,space,1,face,69,23,1,88,88,1,1,0,FOFO,211.67355430180032,231.17593593048514,0.6333986633399036,33,2019_Aug_26_1613,builder_test,3.0.0b12,59.97841370054904,21,
0,88,88,88,None,1,face,351,23,1,89,89,1,0,1,FOFO,213.92349356108753,233.42587518977234,,33,2019_Aug_26_1613,builder_test,3.0.0b12,59.97841370054904,21,
0,89,89,89,None,1,face,181,182,1,90,90,1,0,0,FOFO,216.17340556111594,235.6757875848707,,33,2019_Aug_26_1613,builder_test,3.0.0b12,59.97841370054904,21,
0,90,90,90,None,1,face,39,149,1,91,91,1,0,0,FOFO,218.42325988216908,237.92564190592384,,33,2019_Aug_26_1613,builder_test,3.0.0b12,59.97841370054904,21,
0,91,91,91,None,1,face,213,149,1,92,92,1,0,1,FOFO,220.67306995630497,240.17545158500434,,33,2019_Aug_26_1613,builder_test,3.0.0b12,59.97841370054904,21,
0,92,92,92,None,1,face,131,72,1,93,93,1,0,0,FOFO,222.92302027731785,242.4254252146493,,33,2019_Aug_26_1613,builder_test,3.0.0b12,59.97841370054904,21,
0,93,93,93,space,1,face,131,223,1,94,94,1,1,0,FOFO,225.17287578355172,244.67525780730648,0.9190080319967819,33,2019_Aug_26_1613,builder_test,3.0.0b12,59.97841370054904,21,
0,94,94,94,None,1,face,194,218,1,95,95,1,0,0,FOFO,227.42307696865464,246.9254589924094,,33,2019_Aug_26_1613,builder_test,3.0.0b12,59.97841370054904,21,
0,95,95,95,None,1,face,114,356,1,96,96,1,0,0,FOFO,229.67276773421327,249.17514936289808,,33,2019_Aug_26_1613,builder_test,3.0.0b12,59.97841370054904,21,
0,96,96,96,None,1,face,292,194,1,97,97,1,0,0,FOFO,231.92263114167145,251.42501277035626,,33,2019_Aug_26_1613,builder_test,3.0.0b12,59.97841370054904,21,
0,97,97,97,None,1,face,400,210,1,98,98,1,0,0,FOFO,234.17242462323338,253.67480625193275,,33,2019_Aug_26_1613,builder_test,3.0.0b12,59.97841370054904,21,
0,98,98,98,None,1,face,205,190,1,99,99,1,0,0,FOFO,236.4227984502504,255.92518086906057,,33,2019_Aug_26_1613,builder_test,3.0.0b12,59.97841370054904,21,
0,99,99,99,None,1,face,380,190,1,100,100,1,0,1,FOFO,238.67230709241994,258.17468832604936,,33,2019_Aug_26_1613,builder_test,3.0.0b12,59.97841370054904,21,
0,100,100,100,None,1,face,243,48,1,101,101,1,0,0,FOFO,240.9224802281533,260.42487212843844,,33,2019_Aug_26_1613,builder_test,3.0.0b12,59.97841370054904,21,
0,101,101,101,None,1,face,172,519,1,102,102,1,0,0,FOFO,243.17207578386297,262.6744578076177,,33,2019_Aug_26_1613,builder_test,3.0.0b12,59.97841370054904,21,
0,102,102,102,None,1,face,152,344,1,103,103,1,0,0,FOFO,245.4220328209194,264.9244144496042,,33,2019_Aug_26_1613,builder_test,3.0.0b12,59.97841370054904,21,
0,103,103,103,None,1,face,405,446,1,104,104,1,0,0,FOFO,247.67177454940975,267.1741538077331,,33,2019_Aug_26_1613,builder_test,3.0.0b12,59.97841370054904,21,
0,104,104,104,None,1,face,203,109,1,105,105,1,0,0,FOFO,249.9216699568642,269.4240515855636,,33,2019_Aug_26_1613,builder_test,3.0.0b12,59.97841370054904,21,
0,105,105,105,None,1,face,26,70,1,106,106,1,0,0,FOFO,252.17176447535167,271.6741461040365,,33,2019_Aug_26_1613,builder_test,3.0.0b12,59.97841370054904,21,
0,106,106,106,None,1,face,415,70,1,107,107,1,0,1,FOFO,254.42149790754775,273.9238795362471,,33,2019_Aug_26_1613,builder_test,3.0.0b12,59.97841370054904,21,
0,107,107,107,None,1,face,47,458,1,108,108,1,0,0,FOFO,256.67138699401403,276.17376822764345,,33,2019_Aug_26_1613,builder_test,3.0.0b12,59.97841370054904,21,
0,108,108,108,space,1,face,47,127,1,109,109,1,1,0,FOFO,258.9210971175926,278.42347953640274,0.661479639908066,33,2019_Aug_26_1613,builder_test,3.0.0b12,59.97841370054904,21,
0,109,109,109,None,1,face,312,410,1,110,110,1,0,0,FOFO,261.1713034384884,280.67368546224316,,33,2019_Aug_26_1613,builder_test,3.0.0b12,59.97841370054904,21,
0,110,110,110,space,1,face,312,324,1,111,111,1,1,0,FOFO,263.42121109284926,282.9235927215341,0.6187256814882858,33,2019_Aug_26_1613,builder_test,3.0.0b12,59.97841370054904,21,
0,111,111,111,None,1,face,191,517,1,112,112,1,0,0,FOFO,265.6710729200713,285.1734549438115,,33,2019_Aug_26_1613,builder_test,3.0.0b12,59.97841370054904,21,
0,112,112,112,None,1,face,124,307,1,113,113,1,0,0,FOFO,267.9209181546903,287.4232993883197,,33,2019_Aug_26_1613,builder_test,3.0.0b12,59.97841370054904,21,
0,113,113,113,None,1,face,150,307,1,114,114,1,0,1,FOFO,270.1709032411163,289.6732864500518,,33,2019_Aug_26_1613,builder_test,3.0.0b12,59.97841370054904,21,
0,114,114,114,None,1,face,364,483,1,115,115,1,0,0,FOFO,272.4207785004255,291.9231605241803,,33,2019_Aug_26_1613,builder_test,3.0.0b12,59.97841370054904,21,
0,115,115,115,None,1,face,253,231,1,116,116,1,0,0,FOFO,274.67024921668053,294.1726308453799,,33,2019_Aug_26_1613,builder_test,3.0.0b12,59.97841370054904,21,
0,116,116,116,space,1,face,253,231,1,117,117,1,1,1,FOFO,276.92056496965233,296.42294462303107,0.5582690140145132,33,2019_Aug_26_1613,builder_test,3.0.0b12,59.97841370054904,21,
0,117,117,117,None,1,face,279,359,1,118,118,1,0,0,FOFO,279.17049079683784,298.67287242552266,,33,2019_Aug_26_1613,builder_test,3.0.0b12,59.97841370054904,21,
0,118,118,118,None,1,face,311,484,1,119,119,1,0,0,FOFO,281.4202842783998,300.9226655120292,,33,2019_Aug_26_1613,builder_test,3.0.0b12,59.97841370054904,21,
0,119,119,119,None,1,face,71,275,1,120,120,1,0,0,FOFO,283.670054846385,303.1724364750844,,33,2019_Aug_26_1613,builder_test,3.0.0b12,59.97841370054904,21,
0,120,120,120,None,1,face,31,1,1,121,121,1,0,0,FOFO,285.9201762290613,305.42255588244007,,33,2019_Aug_26_1613,builder_test,3.0.0b12,59.97841370054904,21,
0,121,121,121,None,1,face,237,203,1,122,122,1,0,0,FOFO,288.1700392414641,307.67241889484285,,33,2019_Aug_26_1613,builder_test,3.0.0b12,59.97841370054904,21,
0,122,122,122,None,1,face,161,414,1,123,123,1,0,0,FOFO,290.4200065501209,309.9223881788057,,33,2019_Aug_26_1613,builder_test,3.0.0b12,59.97841370054904,21,
0,123,123,123,None,1,face,338,258,1,124,124,1,0,0,FOFO,292.6694630441634,312.1718454629736,,33,2019_Aug_26_1613,builder_test,3.0.0b12,59.97841370054904,21,
0,124,124,124,None,1,face,347,56,1,125,125,1,0,0,FOFO,294.9196713403653,314.4220533641201,,33,2019_Aug_26_1613,builder_test,3.0.0b12,59.97841370054904,21,
,,,,,,,,,,,,,,,,,,,33,2019_Aug_26_1613,builder_test,3.0.0b12,59.97841370054904,21,
,,,,,,,,,,,,,,,,,,,33,2019_Aug_26_1613,builder_test,3.0.0b12,59.97841370054904,21,
,,,,,,,,,,,,,,,,,,,33,2019_Aug_26_1613,builder_test,3.0.0b12,59.97841370054904,21,
,,,,,,,,,,,,,,,,,,,33,2019_Aug_26_1613,builder_test,3.0.0b12,59.97841370054904,21,
0,0,0,0,None,1,object,36,53,1,126,1,2,0,0,FOFO,7.83303236226493,324.13816527875315,,33,2019_Aug_26_1613,builder_test,3.0.0b12,59.97841370054904,21,
0,1,1,1,None,1,object,165,205,1,127,2,2,0,0,FOFO,10.082672954988084,326.387807451727,,33,2019_Aug_26_1613,builder_test,3.0.0b12,59.97841370054904,21,
0,2,2,2,None,1,object,165,495,1,128,3,2,0,1,FOFO,12.332910090699443,328.638043797313,,33,2019_Aug_26_1613,builder_test,3.0.0b12,59.97841370054904,21,
0,3,3,3,None,1,object,210,478,1,129,4,2,0,0,FOFO,14.58300381906156,330.8881375256751,,33,2019_Aug_26_1613,builder_test,3.0.0b12,59.97841370054904,21,
0,4,4,4,None,1,object,28,490,1,130,5,2,0,0,FOFO,16.83269063399348,333.13782394555165,,33,2019_Aug_26_1613,builder_test,3.0.0b12,59.97841370054904,21,
0,5,5,5,None,1,object,28,464,1,131,6,2,0,1,FOFO,19.08244144891796,335.3875747604616,,33,2019_Aug_26_1613,builder_test,3.0.0b12,59.97841370054904,21,
0,6,6,6,None,1,object,175,222,1,132,7,2,0,0,FOFO,21.33260431305098,337.6377376245946,,33,2019_Aug_26_1613,builder_test,3.0.0b12,59.97841370054904,21,
0,7,7,7,None,1,object,175,212,1,133,8,2,0,1,FOFO,23.581695375134586,339.88684290890524,,33,2019_Aug_26_1613,builder_test,3.0.0b12,59.97841370054904,21,
0,8,8,8,None,1,object,86,125,1,134,9,2,0,0,FOFO,25.83227976996568,342.1374130815093,,33,2019_Aug_26_1613,builder_test,3.0.0b12,59.97841370054904,21,
0,9,9,9,None,1,object,35,471,1,135,10,2,0,0,FOFO,28.08187927628751,344.38701021746965,,33,2019_Aug_26_1613,builder_test,3.0.0b12,59.97841370054904,21,
0,10,10,10,space,1,object,300,471,1,136,11,2,1,0,FOFO,30.33214564656373,346.63727895810734,0.6470974233670859,33,2019_Aug_26_1613,builder_test,3.0.0b12,59.97841370054904,21,
0,11,11,11,None,1,object,98,60,1,137,12,2,0,0,FOFO,32.58202485648508,348.8871581680287,,33,2019_Aug_26_1613,builder_test,3.0.0b12,59.97841370054904,21,
0,12,12,12,space,1,object,151,60,1,138,13,2,1,0,FOFO,34.83190248615574,351.137059106346,0.6544921858876478,33,2019_Aug_26_1613,builder_test,3.0.0b12,59.97841370054904,21,
0,13,13,13,None,1,object,340,482,1,139,14,2,0,0,FOFO,37.08152490606881,353.3866582176124,,33,2019_Aug_26_1613,builder_test,3.0.0b12,59.97841370054904,21,
0,14,14,14,space,1,object,390,482,1,140,15,2,1,0,FOFO,39.33167078254337,355.63680409410154,0.7465340260532685,33,2019_Aug_26_1613,builder_test,3.0.0b12,59.97841370054904,21,
0,15,15,15,None,1,object,393,435,1,141,16,2,0,0,FOFO,41.58158594307315,357.8867366373306,,33,2019_Aug_26_1613,builder_test,3.0.0b12,59.97841370054904,21,
0,16,16,16,None,1,object,140,452,1,142,17,2,0,0,FOFO,43.83156589370628,360.13669960031984,,33,2019_Aug_26_1613,builder_test,3.0.0b12,59.97841370054904,21,
0,17,17,17,None,1,object,315,270,1,143,18,2,0,0,FOFO,46.08103186922381,362.38616557583737,,33,2019_Aug_26_1613,builder_test,3.0.0b12,59.97841370054904,21,
0,18,18,18,None,1,object,4,247,1,144,19,2,0,0,FOFO,48.33128441232839,364.63641811894195,,33,2019_Aug_26_1613,builder_test,3.0.0b12,59.97841370054904,21,
0,19,19,19,None,1,object,4,146,1,145,20,2,0,1,FOFO,50.58116836298723,366.88630127949,,33,2019_Aug_26_1613,builder_test,3.0.0b12,59.97841370054904,21,
0,20,20,20,None,1,object,166,257,1,146,21,2,0,0,FOFO,52.83109972105012,369.13623303259374,,33,2019_Aug_26_1613,builder_test,3.0.0b12,59.97841370054904,21,
0,21,21,21,None,1,object,115,396,1,147,22,2,0,0,FOFO,55.08059374593722,371.3857274525508,,33,2019_Aug_26_1613,builder_test,3.0.0b12,59.97841370054904,21,
0,22,22,22,None,1,object,331,264,1,148,23,2,0,0,FOFO,57.33091740013333,373.63605031662155,,33,2019_Aug_26_1613,builder_test,3.0.0b12,59.97841370054904,21,
0,23,23,23,None,1,object,228,347,1,149,24,2,0,0,FOFO,59.580773301422596,375.8859066129662,,33,2019_Aug_26_1613,builder_test,3.0.0b12,59.97841370054904,21,
0,24,24,24,None,1,object,228,434,1,150,25,2,0,1,FOFO,61.83021991892019,378.1353603415773,,33,2019_Aug_26_1613,builder_test,3.0.0b12,59.97841370054904,21,
0,25,25,25,space,1,object,218,434,1,151,26,2,1,0,FOFO,64.08037804231571,380.3855204402789,0.8006116343312897,33,2019_Aug_26_1613,builder_test,3.0.0b12,59.97841370054904,21,
0,26,26,26,None,1,object,138,33,1,152,27,2,0,0,FOFO,66.33042475834372,382.6355560945958,,33,2019_Aug_26_1613,builder_test,3.0.0b12,59.97841370054904,21,
0,27,27,27,None,1,object,38,225,1,153,28,2,0,0,FOFO,68.58038851144374,384.8855194526259,,33,2019_Aug_26_1613,builder_test,3.0.0b12,59.97841370054904,21,
0,28,28,28,None,1,object,289,325,1,154,29,2,0,0,FOFO,70.83010021527298,387.13523392188654,,33,2019_Aug_26_1613,builder_test,3.0.0b12,59.97841370054904,21,
0,29,29,29,None,1,object,419,280,1,155,30,2,0,0,FOFO,73.07975898083532,389.3848926874489,,33,2019_Aug_26_1613,builder_test,3.0.0b12,59.97841370054904,21,
0,30,30,30,None,1,object,339,481,1,156,31,2,0,0,FOFO,75.33001705480274,391.6351507614163,,33,2019_Aug_26_1613,builder_test,3.0.0b12,59.97841370054904,21,
0,31,31,31,None,1,object,74,394,1,157,32,2,0,0,FOFO,77.5798346351221,393.88496834173566,,33,2019_Aug_26_1613,builder_test,3.0.0b12,59.97841370054904,21,
0,32,32,32,None,1,object,216,456,1,158,33,2,0,0,FOFO,79.8297734993539,396.1349068108975,,33,2019_Aug_26_1613,builder_test,3.0.0b12,59.97841370054904,21,
0,33,33,33,None,1,object,216,255,1,159,34,2,0,1,FOFO,82.07930505508557,398.3844379715738,,33,2019_Aug_26_1613,builder_test,3.0.0b12,59.97841370054904,21,
0,34,34,34,None,1,object,230,298,1,160,35,2,0,0,FOFO,84.32947305502603,400.63460636656964,,33,2019_Aug_26_1613,builder_test,3.0.0b12,59.97841370054904,21,
0,35,35,35,None,1,object,417,343,1,161,36,2,0,0,FOFO,86.57944194391894,402.8845728851011,,33,2019_Aug_26_1613,builder_test,3.0.0b12,59.97841370054904,21,
0,36,36,36,None,1,object,361,71,1,162,37,2,0,0,FOFO,88.82936303036695,405.1344963419251,,33,2019_Aug_26_1613,builder_test,3.0.0b12,59.97841370054904,21,
0,37,37,37,None,1,object,227,380,1,163,38,2,0,0,FOFO,91.07881399354665,407.3839477001602,,33,2019_Aug_26_1613,builder_test,3.0.0b12,59.97841370054904,21,
0,38,38,38,None,1,object,280,387,1,164,39,2,0,0,FOFO,93.32917478353193,409.6343080950901,,33,2019_Aug_26_1613,builder_test,3.0.0b12,59.97841370054904,21,
0,39,39,39,None,1,object,77,266,1,165,40,2,0,0,FOFO,95.57911917861202,411.88425011979416,,33,2019_Aug_26_1613,builder_test,3.0.0b12,59.97841370054904,21,
0,40,40,40,None,1,object,73,167,1,166,41,2,0,0,FOFO,97.82895888238272,414.1340921939409,,33,2019_Aug_26_1613,builder_test,3.0.0b12,59.97841370054904,21,
0,41,41,41,space,1,object,301,167,1,167,42,2,1,0,FOFO,100.0785496973549,416.38368340396846,0.6875730617030058,33,2019_Aug_26_1613,builder_test,3.0.0b12,59.97841370054904,21,
0,42,42,42,None,1,object,249,260,1,168,43,2,0,0,FOFO,102.32877142567304,418.63390473721665,,33,2019_Aug_26_1613,builder_test,3.0.0b12,59.97841370054904,21,
0,43,43,43,None,1,object,269,63,1,169,44,2,0,0,FOFO,104.57881458614429,420.88394789770246,,33,2019_Aug_26_1613,builder_test,3.0.0b12,59.97841370054904,21,
0,44,44,44,None,1,object,282,17,1,170,45,2,0,0,FOFO,106.82864401831466,423.1337773298583,,33,2019_Aug_26_1613,builder_test,3.0.0b12,59.97841370054904,21,
0,45,45,45,None,1,object,389,40,1,171,46,2,0,0,FOFO,109.078186635772,425.3833286386798,,33,2019_Aug_26_1613,builder_test,3.0.0b12,59.97841370054904,21,
0,46,46,46,None,1,object,254,59,1,172,47,2,0,0,FOFO,111.32812945061596,427.6332627621596,,33,2019_Aug_26_1613,builder_test,3.0.0b12,59.97841370054904,21,
0,47,47,47,None,1,object,383,341,1,173,48,2,0,0,FOFO,113.57773211743915,429.8828733302216,,33,2019_Aug_26_1613,builder_test,3.0.0b12,59.97841370054904,21,
0,48,48,48,None,1,object,189,515,1,174,49,2,0,0,FOFO,115.82876727751864,432.1339005890768,,33,2019_Aug_26_1613,builder_test,3.0.0b12,59.97841370054904,21,
0,49,49,49,None,1,object,381,100,1,175,50,2,0,0,FOFO,118.07766199401522,434.3827957006142,,33,2019_Aug_26_1613,builder_test,3.0.0b12,59.97841370054904,21,
0,50,50,50,None,1,object,381,103,1,176,51,2,0,1,FOFO,120.32785448775394,436.6329877993121,,33,2019_Aug_26_1613,builder_test,3.0.0b12,59.97841370054904,21,
0,51,51,51,space,1,object,147,103,1,177,52,2,1,0,FOFO,122.57783167295565,438.88296498449927,1.079689054939081,33,2019_Aug_26_1613,builder_test,3.0.0b12,59.97841370054904,21,
0,52,52,52,None,1,object,199,86,1,178,53,2,0,0,FOFO,124.82764767302433,441.1327786142065,,33,2019_Aug_26_1613,builder_test,3.0.0b12,59.97841370054904,21,
0,53,53,53,None,1,object,141,93,1,179,54,2,0,0,FOFO,127.0773822904157,443.3825156019593,,33,2019_Aug_26_1613,builder_test,3.0.0b12,59.97841370054904,21,
0,54,54,54,None,1,object,141,97,1,180,55,2,0,1,FOFO,129.32754159899196,445.6326745154802,,33,2019_Aug_26_1613,builder_test,3.0.0b12,59.97841370054904,21,
0,55,55,55,None,1,object,156,94,1,181,56,2,0,0,FOFO,131.57747651259706,447.8826102192106,,33,2019_Aug_26_1613,builder_test,3.0.0b12,59.97841370054904,21,
0,56,56,56,None,1,object,90,301,1,182,57,2,0,0,FOFO,133.82722890775767,450.13236261437123,,33,2019_Aug_26_1613,builder_test,3.0.0b12,59.97841370054904,21,
0,57,57,57,None,1,object,288,197,1,183,58,2,0,0,FOFO,136.07691216714738,452.38204587376094,,33,2019_Aug_26_1613,builder_test,3.0.0b12,59.97841370054904,21,
0,58,58,58,None,1,object,288,107,1,184,59,2,0,1,FOFO,138.3271485127334,454.632281824277,,33,2019_Aug_26_1613,builder_test,3.0.0b12,59.97841370054904,21,
0,59,59,59,None,1,object,357,156,1,185,60,2,0,0,FOFO,140.57657735246175,456.8817114541307,,33,2019_Aug_26_1613,builder_test,3.0.0b12,59.97841370054904,21,
0,60,60,60,None,1,object,43,309,1,186,61,2,0,0,FOFO,142.82676154992077,459.1318948614644,,33,2019_Aug_26_1613,builder_test,3.0.0b12,59.97841370054904,21,
0,61,61,61,None,1,object,370,388,1,187,62,2,0,0,FOFO,145.07657596975332,461.38170967635233,,33,2019_Aug_26_1613,builder_test,3.0.0b12,59.97841370054904,21,
0,62,62,62,space,1,object,370,388,1,188,63,2,1,1,FOFO,147.32658436481142,463.63171767635504,0.8088826433959184,33,2019_Aug_26_1613,builder_test,3.0.0b12,59.97841370054904,21,
0,63,63,63,None,1,object,349,375,1,189,64,2,0,0,FOFO,149.57642722906894,465.8815609356825,,33,2019_Aug_26_1613,builder_test,3.0.0b12,59.97841370054904,21,
0,64,64,64,None,1,object,333,330,1,190,65,2,0,0,FOFO,151.82646011793986,468.131593429498,,33,2019_Aug_26_1613,builder_test,3.0.0b12,59.97841370054904,21,
0,65,65,65,None,1,object,366,108,1,191,66,2,0,0,FOFO,154.07597073541547,470.38110404697363,,33,2019_Aug_26_1613,builder_test,3.0.0b12,59.97841370054904,21,
0,66,66,66,None,1,object,132,102,1,192,67,2,0,0,FOFO,156.32607473537792,472.63120804692153,,33,2019_Aug_26_1613,builder_test,3.0.0b12,59.97841370054904,21,
0,67,67,67,space,1,object,132,102,1,193,68,2,1,1,FOFO,158.57607641439245,474.88121130618674,0.758037428924581,33,2019_Aug_26_1613,builder_test,3.0.0b12,59.97841370054904,21,
0,68,68,68,None,1,object,198,462,1,194,69,2,0,0,FOFO,160.82614801930322,477.1312817259168,,33,2019_Aug_26_1613,builder_test,3.0.0b12,59.97841370054904,21,
0,69,69,69,None,1,object,409,311,1,195,70,2,0,0,FOFO,163.0758905379189,479.3810250346578,,33,2019_Aug_26_1613,builder_test,3.0.0b12,59.97841370054904,21,
0,70,70,70,None,1,object,126,382,1,196,71,2,0,0,FOFO,165.32535927886784,481.63049377560674,,33,2019_Aug_26_1613,builder_test,3.0.0b12,59.97841370054904,21,
0,71,71,71,None,1,object,307,62,1,197,72,2,0,0,FOFO,167.57572322933993,483.8808565408981,,33,2019_Aug_26_1613,builder_test,3.0.0b12,59.97841370054904,21,
0,72,72,72,None,1,object,23,134,1,198,73,2,0,0,FOFO,169.82568026639638,486.13081436806533,,33,2019_Aug_26_1613,builder_test,3.0.0b12,59.97841370054904,21,
0,73,73,73,None,1,object,50,250,1,199,74,2,0,0,FOFO,172.07562347629573,488.38075876316,,33,2019_Aug_26_1613,builder_test,3.0.0b12,59.97841370054904,21,
0,74,74,74,None,1,object,50,284,1,200,75,2,0,1,FOFO,174.3253458467807,490.63047994844965,,33,2019_Aug_26_1613,builder_test,3.0.0b12,59.97841370054904,21,
0,75,75,75,None,1,object,314,142,1,201,76,2,0,0,FOFO,176.5753455504746,492.88047886203276,,33,2019_Aug_26_1613,builder_test,3.0.0b12,59.97841370054904,21,
0,76,76,76,None,1,object,388,355,1,202,77,2,0,0,FOFO,178.8249829827255,495.1301162942691,,33,2019_Aug_26_1613,builder_test,3.0.0b12,59.97841370054904,21,
0,77,77,77,space,1,object,15,355,1,203,78,2,1,0,FOFO,181.07503048887884,497.3801622201863,0.9023071990959579,33,2019_Aug_26_1613,builder_test,3.0.0b12,59.97841370054904,21,
0,78,78,78,None,1,object,368,138,1,204,79,2,0,0,FOFO,183.3249077234941,499.63003866467625,,33,2019_Aug_26_1613,builder_test,3.0.0b12,59.97841370054904,21,
0,79,79,79,None,1,object,96,469,1,205,80,2,0,0,FOFO,185.57480984699214,501.8799435536057,,33,2019_Aug_26_1613,builder_test,3.0.0b12,59.97841370054904,21,
0,80,80,80,None,1,object,82,269,1,206,81,2,0,0,FOFO,187.82478821736004,504.1299195536121,,33,2019_Aug_26_1613,builder_test,3.0.0b12,59.97841370054904,21,
0,81,81,81,space,1,object,13,269,1,207,82,2,1,0,FOFO,190.07484520500293,506.3799797017273,0.6275229125894839,33,2019_Aug_26_1613,builder_test,3.0.0b12,59.97841370054904,21,
0,82,82,82,None,1,object,246,29,1,208,83,2,0,0,FOFO,192.32439453850384,508.629527850062,,33,2019_Aug_26_1613,builder_test,3.0.0b12,59.97841370054904,21,
0,83,83,83,None,1,object,412,475,1,209,84,2,0,0,FOFO,194.5744060940633,510.87953980067687,,33,2019_Aug_26_1613,builder_test,3.0.0b12,59.97841370054904,21,
0,84,84,84,None,1,object,95,220,1,210,85,2,0,0,FOFO,196.82440421752108,513.1295639981981,,33,2019_Aug_26_1613,builder_test,3.0.0b12,59.97841370054904,21,
0,85,85,85,None,1,object,113,116,1,211,86,2,0,0,FOFO,199.07420797068335,515.379341282227,,33,2019_Aug_26_1613,builder_test,3.0.0b12,59.97841370054904,21,
0,86,86,86,space,1,object,1,116,1,212,87,2,1,0,FOFO,201.32412826700602,517.6292615785642,1.1482286821847083,33,2019_Aug_26_1613,builder_test,3.0.0b12,59.97841370054904,21,
0,87,87,87,None,1,object,358,397,1,213,88,2,0,0,FOFO,203.57431443977111,519.8794477513293,,33,2019_Aug_26_1613,builder_test,3.0.0b12,59.97841370054904,21,
0,88,88,88,None,1,object,308,170,1,214,89,2,0,0,FOFO,205.82396253867773,522.1290982205974,,33,2019_Aug_26_1613,builder_test,3.0.0b12,59.97841370054904,21,
0,89,89,89,None,1,object,127,69,1,215,90,2,0,0,FOFO,208.07371690914442,524.3788581219269,,33,2019_Aug_26_1613,builder_test,3.0.0b12,59.97841370054904,21,
0,90,90,90,None,1,object,121,35,1,216,91,2,0,0,FOFO,210.32376639060385,526.6290569366683,,33,2019_Aug_26_1613,builder_test,3.0.0b12,59.97841370054904,21,
0,91,91,91,space,1,object,121,35,1,217,92,2,1,1,FOFO,212.57352668700332,528.8786603936169,0.6439859184174566,33,2019_Aug_26_1613,builder_test,3.0.0b12,59.97841370054904,21,
0,92,92,92,None,1,object,209,488,1,218,93,2,0,0,FOFO,214.82346594629053,531.1285996528895,,33,2019_Aug_26_1613,builder_test,3.0.0b12,59.97841370054904,21,
0,93,93,93,space,1,object,362,488,1,219,94,2,1,0,FOFO,217.0732957735163,533.3784294801299,0.7159203097544378,33,2019_Aug_26_1613,builder_test,3.0.0b12,59.97841370054904,21,
0,94,94,94,None,1,object,248,65,1,220,95,2,0,0,FOFO,219.3232856006798,535.6284189122234,,33,2019_Aug_26_1613,builder_test,3.0.0b12,59.97841370054904,21,
0,95,95,95,None,1,object,248,511,1,221,96,2,0,1,FOFO,221.57309804519173,537.8782313567499,,33,2019_Aug_26_1613,builder_test,3.0.0b12,59.97841370054904,21,
0,96,96,96,None,1,object,0,79,1,222,97,2,0,0,FOFO,223.82310288469307,540.1282361962512,,33,2019_Aug_26_1613,builder_test,3.0.0b12,59.97841370054904,21,
0,97,97,97,None,1,object,137,510,1,223,98,2,0,0,FOFO,226.07299473659077,542.3781284432043,,33,2019_Aug_26_1613,builder_test,3.0.0b12,59.97841370054904,21,
0,98,98,98,space,1,object,271,510,1,224,99,2,1,0,FOFO,228.32288856379455,544.6280222704081,0.6305984669306781,33,2019_Aug_26_1613,builder_test,3.0.0b12,59.97841370054904,21,
0,99,99,99,None,1,object,326,58,1,225,100,2,0,0,FOFO,230.57279108234798,546.8779243939061,,33,2019_Aug_26_1613,builder_test,3.0.0b12,59.97841370054904,21,
0,100,100,100,space,1,object,367,58,1,226,101,2,1,0,FOFO,232.82269241572067,549.1278257272788,0.5348165788454935,33,2019_Aug_26_1613,builder_test,3.0.0b12,59.97841370054904,21,
0,101,101,101,None,1,object,414,155,1,227,102,2,0,0,FOFO,235.0724855022272,551.3776164434094,,33,2019_Aug_26_1613,builder_test,3.0.0b12,59.97841370054904,21,
0,102,102,102,None,1,object,324,363,1,228,103,2,0,0,FOFO,237.3223425886972,553.6274759002554,,33,2019_Aug_26_1613,builder_test,3.0.0b12,59.97841370054904,21,
0,103,103,103,None,1,object,324,504,1,229,104,2,0,1,FOFO,239.57174021856918,555.8768861720891,,33,2019_Aug_26_1613,builder_test,3.0.0b12,59.97841370054904,21,
0,104,104,104,space,1,object,284,504,1,230,105,2,1,0,FOFO,241.82229379859928,558.1274271101429,0.6662804281368153,33,2019_Aug_26_1613,builder_test,3.0.0b12,59.97841370054904,21,
0,105,105,105,None,1,object,91,317,1,231,106,2,0,0,FOFO,244.07218762580305,560.3773391101859,,33,2019_Aug_26_1613,builder_test,3.0.0b12,59.97841370054904,21,
0,106,106,106,None,1,object,236,173,1,232,107,2,0,0,FOFO,246.32202021846024,562.6271535300039,,33,2019_Aug_26_1613,builder_test,3.0.0b12,59.97841370054904,21,
0,107,107,107,None,1,object,236,506,1,233,108,2,0,1,FOFO,248.57176510745194,564.8768988140655,,33,2019_Aug_26_1613,builder_test,3.0.0b12,59.97841370054904,21,
0,108,108,108,None,1,object,109,440,1,234,109,2,0,0,FOFO,250.82181419385597,567.1269475053996,,33,2019_Aug_26_1613,builder_test,3.0.0b12,59.97841370054904,21,
0,109,109,109,None,1,object,323,104,1,235,110,2,0,0,FOFO,253.07196086045587,569.377094172014,,33,2019_Aug_26_1613,builder_test,3.0.0b12,59.97841370054904,21,
0,110,110,110,space,1,object,323,104,1,236,111,2,1,1,FOFO,255.321540218647,571.6266739252605,1.0748542914225254,33,2019_Aug_26_1613,builder_test,3.0.0b12,59.97841370054904,21,
0,111,111,111,None,1,object,234,378,1,237,112,2,0,0,FOFO,257.57155177420645,573.8766850857501,,33,2019_Aug_26_1613,builder_test,3.0.0b12,59.97841370054904,21,
0,112,112,112,space,1,object,33,378,1,238,113,2,1,0,FOFO,259.8213191817049,576.1264524932485,0.5160215245268773,33,2019_Aug_26_1613,builder_test,3.0.0b12,59.97841370054904,21,
0,113,113,113,None,1,object,45,36,1,239,114,2,0,0,FOFO,262.07128925577854,578.3764221722813,,33,2019_Aug_26_1613,builder_test,3.0.0b12,59.97841370054904,21,
0,114,114,114,None,1,object,313,124,1,240,115,2,0,0,FOFO,264.32097251516825,580.6261062217818,,33,2019_Aug_26_1613,builder_test,3.0.0b12,59.97841370054904,21,
0,115,115,115,None,1,object,99,476,1,241,116,2,0,0,FOFO,266.57114683608233,582.8762801476405,,33,2019_Aug_26_1613,builder_test,3.0.0b12,59.97841370054904,21,
0,116,116,116,None,1,object,373,427,1,242,117,2,0,0,FOFO,268.821017749724,585.1261510612676,,33,2019_Aug_26_1613,builder_test,3.0.0b12,59.97841370054904,21,
0,117,117,117,None,1,object,373,486,1,243,118,2,0,1,FOFO,271.0709013053274,587.3760342218156,,33,2019_Aug_26_1613,builder_test,3.0.0b12,59.97841370054904,21,
0,118,118,118,None,1,object,130,334,1,244,119,2,0,0,FOFO,273.320765107841,589.6258984193992,,33,2019_Aug_26_1613,builder_test,3.0.0b12,59.97841370054904,21,
0,119,119,119,None,1,object,167,141,1,245,120,2,0,0,FOFO,275.5706091572938,591.875740098476,,33,2019_Aug_26_1613,builder_test,3.0.0b12,59.97841370054904,21,
0,120,120,120,None,1,object,56,193,1,246,121,2,0,0,FOFO,277.8205168116401,594.1256505182537,,33,2019_Aug_26_1613,builder_test,3.0.0b12,59.97841370054904,21,
0,121,121,121,space,1,object,56,193,1,247,122,2,1,1,FOFO,280.0704604166094,596.3755913577916,0.5274056187918177,33,2019_Aug_26_1613,builder_test,3.0.0b12,59.97841370054904,21,
0,122,122,122,None,1,object,93,273,1,248,123,2,0,0,FOFO,282.3201725154795,598.625304246787,,33,2019_Aug_26_1613,builder_test,3.0.0b12,59.97841370054904,21,
0,123,123,123,None,1,object,93,367,1,249,124,2,0,1,FOFO,284.5701421945123,600.8752755060559,,33,2019_Aug_26_1613,builder_test,3.0.0b12,59.97841370054904,21,
0,124,124,124,space,1,object,25,367,1,250,125,2,1,0,FOFO,286.8201312315505,603.1252645431086,0.5505534615076613,33,2019_Aug_26_1613,builder_test,3.0.0b12,59.97841370054904,21,
,,,,,,,,,,,,,,,,,,,33,2019_Aug_26_1613,builder_test,3.0.0b12,59.97841370054904,21,
,,,,,,,,,,,,,,,,,,,33,2019_Aug_26_1613,builder_test,3.0.0b12,59.97841370054904,21,
,,,,,,,,,,,,,,,,,,,33,2019_Aug_26_1613,builder_test,3.0.0b12,59.97841370054904,21,
,,,,,,,,,,,,,,,,,,,33,2019_Aug_26_1613,builder_test,3.0.0b12,59.97841370054904,21,
0,0,0,0,None,1,face,159,15,1,251,1,3,0,0,FOFO,9.366328349104151,614.0248375210504,,33,2019_Aug_26_1613,builder_test,3.0.0b12,59.97841370054904,21,
0,1,1,1,None,1,face,83,177,1,252,2,3,0,0,FOFO,11.616081139320158,616.2745926816424,,33,2019_Aug_26_1613,builder_test,3.0.0b12,59.97841370054904,21,
0,2,2,2,space,1,face,83,494,1,253,3,3,1,0,FOFO,13.865984843068873,618.5244963853766,0.5695752811589045,33,2019_Aug_26_1613,builder_test,3.0.0b12,59.97841370054904,21,
0,3,3,3,None,1,face,184,494,1,254,4,3,0,1,FOFO,16.115828102381784,620.774337274328,,33,2019_Aug_26_1613,builder_test,3.0.0b12,59.97841370054904,21,
0,4,4,4,None,1,face,244,19,1,255,5,3,0,0,FOFO,18.365715608611936,623.024227545975,,33,2019_Aug_26_1613,builder_test,3.0.0b12,59.97841370054904,21,
0,5,5,5,None,1,face,215,285,1,256,6,3,0,0,FOFO,20.615630769127165,625.2741423114494,,33,2019_Aug_26_1613,builder_test,3.0.0b12,59.97841370054904,21,
0,6,6,6,None,1,face,112,442,1,257,7,3,0,0,FOFO,22.865584250626853,627.5240953978791,,33,2019_Aug_26_1613,builder_test,3.0.0b12,59.97841370054904,21,
0,7,7,7,None,1,face,139,47,1,258,8,3,0,0,FOFO,25.11547807783063,629.7739900152083,,33,2019_Aug_26_1613,builder_test,3.0.0b12,59.97841370054904,21,
0,8,8,8,None,1,face,391,47,1,259,9,3,0,1,FOFO,27.36544617661275,632.0239557436144,,33,2019_Aug_26_1613,builder_test,3.0.0b12,59.97841370054904,21,
0,9,9,9,None,1,face,101,153,1,260,10,3,0,0,FOFO,29.615249139649677,634.2737606819719,,33,2019_Aug_26_1613,builder_test,3.0.0b12,59.97841370054904,21,
0,10,10,10,None,1,face,40,81,1,261,11,3,0,0,FOFO,31.865173386599054,636.5236825585453,,33,2019_Aug_26_1613,builder_test,3.0.0b12,59.97841370054904,21,
0,11,11,11,None,1,face,186,291,1,262,12,3,0,0,FOFO,34.114975954580586,638.7734874968883,,33,2019_Aug_26_1613,builder_test,3.0.0b12,59.97841370054904,21,
0,12,12,12,space,1,face,186,409,1,263,13,3,1,0,FOFO,36.36503610269574,641.023547645018,0.6824107921274845,33,2019_Aug_26_1613,builder_test,3.0.0b12,59.97841370054904,21,
0,13,13,13,None,1,face,60,164,1,264,14,3,0,0,FOFO,38.614886868192116,643.2733984104998,,33,2019_Aug_26_1613,builder_test,3.0.0b12,59.97841370054904,21,
0,14,14,14,space,1,face,60,164,1,265,15,3,1,1,FOFO,40.86467916457332,645.523190706881,0.7261393674561987,33,2019_Aug_26_1613,builder_test,3.0.0b12,59.97841370054904,21,
0,15,15,15,None,1,face,286,175,1,266,16,3,0,0,FOFO,43.11464370779868,647.7731556451763,,33,2019_Aug_26_1613,builder_test,3.0.0b12,59.97841370054904,21,
0,16,16,16,None,1,face,80,466,1,267,17,3,0,0,FOFO,45.36451738685719,650.0230289291649,,33,2019_Aug_26_1613,builder_test,3.0.0b12,59.97841370054904,21,
0,17,17,17,None,1,face,335,137,1,268,18,3,0,0,FOFO,47.614361041240045,652.2728741637984,,33,2019_Aug_26_1613,builder_test,3.0.0b12,59.97841370054904,21,
0,18,18,18,None,1,face,418,395,1,269,19,3,0,0,FOFO,49.86428015238198,654.5227893243282,,33,2019_Aug_26_1613,builder_test,3.0.0b12,59.97841370054904,21,
0,19,19,19,None,1,face,116,44,1,270,20,3,0,0,FOFO,52.11448489304166,656.7729972254747,,33,2019_Aug_26_1613,builder_test,3.0.0b12,59.97841370054904,21,
0,20,20,20,None,1,face,197,342,1,271,21,3,0,0,FOFO,54.364095461103716,659.0226070034114,,33,2019_Aug_26_1613,builder_test,3.0.0b12,59.97841370054904,21,
0,21,21,21,None,1,face,202,314,1,272,22,3,0,0,FOFO,56.61409318949154,661.2726051268692,,33,2019_Aug_26_1613,builder_test,3.0.0b12,59.97841370054904,21,
0,22,22,22,None,1,face,294,74,1,273,23,3,0,0,FOFO,58.86388232538593,663.5223938676936,,33,2019_Aug_26_1613,builder_test,3.0.0b12,59.97841370054904,21,
0,23,23,23,space,1,face,294,74,1,274,24,3,1,1,FOFO,61.11381407848967,665.7723256208119,0.4592891024949495,33,2019_Aug_26_1613,builder_test,3.0.0b12,59.97841370054904,21,
0,24,24,24,None,1,face,10,398,1,275,25,3,0,0,FOFO,63.36357279463846,668.0220843369461,,33,2019_Aug_26_1613,builder_test,3.0.0b12,59.97841370054904,21,
0,25,25,25,None,1,face,125,502,1,276,26,3,0,0,FOFO,65.61359501685365,670.2721065591613,,33,2019_Aug_26_1613,builder_test,3.0.0b12,59.97841370054904,21,
0,26,26,26,None,1,face,182,276,1,277,27,3,0,0,FOFO,67.86347225146892,672.5219837937766,,33,2019_Aug_26_1613,builder_test,3.0.0b12,59.97841370054904,21,
0,27,27,27,None,1,face,134,477,1,278,28,3,0,0,FOFO,70.113373979897,674.7718855222192,,33,2019_Aug_26_1613,builder_test,3.0.0b12,59.97841370054904,21,
0,28,28,28,None,1,face,291,477,1,279,29,3,0,1,FOFO,72.36321447379305,677.0217260161007,,33,2019_Aug_26_1613,builder_test,3.0.0b12,59.97841370054904,21,
0,29,29,29,space,1,face,291,425,1,280,30,3,1,0,FOFO,74.61314267135458,679.2716542136623,0.49005333727109246,33,2019_Aug_26_1613,builder_test,3.0.0b12,59.97841370054904,21,
0,30,30,30,None,1,face,120,425,1,281,31,3,0,1,FOFO,76.8630021282006,681.5215136705083,,33,2019_Aug_26_1613,builder_test,3.0.0b12,59.97841370054904,21,
0,31,31,31,space,1,face,120,374,1,282,32,3,1,0,FOFO,79.11294099241786,683.7714501643641,0.5318844318389893,33,2019_Aug_26_1613,builder_test,3.0.0b12,59.97841370054904,21,
0,32,32,32,None,1,face,118,319,1,283,33,3,0,0,FOFO,81.36284390604123,686.0213530779874,,33,2019_Aug_26_1613,builder_test,3.0.0b12,59.97841370054904,21,
0,33,33,33,None,1,face,107,76,1,284,34,3,0,0,FOFO,83.61283570851083,688.2713472508185,,33,2019_Aug_26_1613,builder_test,3.0.0b12,59.97841370054904,21,
0,34,34,34,None,1,face,247,211,1,285,35,3,0,0,FOFO,85.86259007897752,690.5211016212852,,33,2019_Aug_26_1613,builder_test,3.0.0b12,59.97841370054904,21,
0,35,35,35,None,1,face,395,183,1,286,36,3,0,0,FOFO,88.11253012837551,692.7710420657531,,33,2019_Aug_26_1613,builder_test,3.0.0b12,59.97841370054904,21,
0,36,36,36,None,1,face,136,289,1,287,37,3,0,0,FOFO,90.3624875605019,695.0209994978795,,33,2019_Aug_26_1613,builder_test,3.0.0b12,59.97841370054904,21,
0,37,37,37,None,1,face,55,206,1,288,38,3,0,0,FOFO,92.61238494324789,697.2708964855701,,33,2019_Aug_26_1613,builder_test,3.0.0b12,59.97841370054904,21,
0,38,38,38,None,1,face,365,206,1,289,39,3,0,1,FOFO,94.86213575817237,699.52064730048,,33,2019_Aug_26_1613,builder_test,3.0.0b12,59.97841370054904,21,
0,39,39,39,None,1,face,75,219,1,290,40,3,0,0,FOFO,97.11223106677062,701.7707426090928,,33,2019_Aug_26_1613,builder_test,3.0.0b12,59.97841370054904,21,
0,40,40,40,None,1,face,123,68,1,291,41,3,0,0,FOFO,99.36192025207856,704.0204294240248,,33,2019_Aug_26_1613,builder_test,3.0.0b12,59.97841370054904,21,
0,41,41,41,None,1,face,67,432,1,292,42,3,0,0,FOFO,101.61196775823191,706.2704796956095,,33,2019_Aug_26_1613,builder_test,3.0.0b12,59.97841370054904,21,
0,42,42,42,None,1,face,42,227,1,293,43,3,0,0,FOFO,103.86183748667827,708.5203486339306,,33,2019_Aug_26_1613,builder_test,3.0.0b12,59.97841370054904,21,
0,43,43,43,None,1,face,336,406,1,294,44,3,0,0,FOFO,106.11176370893372,710.7702752512414,,33,2019_Aug_26_1613,builder_test,3.0.0b12,59.97841370054904,21,
0,44,44,44,None,1,face,316,0,1,295,45,3,0,0,FOFO,108.36164923984325,713.0201584117895,,33,2019_Aug_26_1613,builder_test,3.0.0b12,59.97841370054904,21,
0,45,45,45,None,1,face,260,160,1,296,46,3,0,0,FOFO,110.61140993129811,715.2699214736058,,33,2019_Aug_26_1613,builder_test,3.0.0b12,59.97841370054904,21,
0,46,46,46,None,1,face,223,445,1,297,47,3,0,0,FOFO,112.86135590662889,717.5198674489366,,33,2019_Aug_26_1613,builder_test,3.0.0b12,59.97841370054904,21,
0,47,47,47,None,1,face,332,445,1,298,48,3,0,1,FOFO,115.11134375848633,719.7698525353626,,33,2019_Aug_26_1613,builder_test,3.0.0b12,59.97841370054904,21,
0,48,48,48,None,1,face,252,436,1,299,49,3,0,0,FOFO,117.36114711657865,722.0196586589009,,33,2019_Aug_26_1613,builder_test,3.0.0b12,59.97841370054904,21,
0,49,49,49,None,1,face,173,237,1,300,50,3,0,0,FOFO,119.61108400548983,724.2695951527567,,33,2019_Aug_26_1613,builder_test,3.0.0b12,59.97841370054904,21,
0,50,50,50,None,1,face,173,199,0,301,51,3,1,0,FOFO,121.8609438574058,726.5194553997135,,33,2019_Aug_26_1613,builder_test,3.0.0b12,59.97841370054904,21,
0,51,51,51,None,1,face,143,373,1,302,52,3,0,0,FOFO,124.11081477103289,728.7693267084105,,33,2019_Aug_26_1613,builder_test,3.0.0b12,59.97841370054904,21,
0,52,52,52,space,1,face,143,399,1,303,53,3,1,0,FOFO,126.36088084508083,731.0193896219716,1.400123891318799,33,2019_Aug_26_1613,builder_test,3.0.0b12,59.97841370054904,21,
0,53,53,53,None,1,face,157,38,1,304,54,3,0,0,FOFO,128.61070316613768,733.2692151035153,,33,2019_Aug_26_1613,builder_test,3.0.0b12,59.97841370054904,21,
0,54,54,54,None,1,face,12,416,1,305,55,3,0,0,FOFO,130.8605930427293,735.5191018196056,,33,2019_Aug_26_1613,builder_test,3.0.0b12,59.97841370054904,21,
0,55,55,55,None,1,face,117,181,1,306,56,3,0,0,FOFO,133.1104975365888,737.769009078911,,33,2019_Aug_26_1613,builder_test,3.0.0b12,59.97841370054904,21,
0,56,56,56,None,1,face,219,119,1,307,57,3,0,0,FOFO,135.360372795898,740.0188847332756,,33,2019_Aug_26_1613,builder_test,3.0.0b12,59.97841370054904,21,
0,57,57,57,space,1,face,219,14,1,308,58,3,1,0,FOFO,137.6101319071022,742.2686434494244,0.5262453229661332,33,2019_Aug_26_1613,builder_test,3.0.0b12,59.97841370054904,21,
0,58,58,58,None,1,face,355,14,1,309,59,3,0,1,FOFO,139.8601568947488,744.518668437071,,33,2019_Aug_26_1613,builder_test,3.0.0b12,59.97841370054904,21,
0,59,59,59,None,1,face,54,512,1,310,60,3,0,0,FOFO,142.11005941330222,746.7685713506798,,33,2019_Aug_26_1613,builder_test,3.0.0b12,59.97841370054904,21,
0,60,60,60,None,1,face,146,358,1,311,61,3,0,0,FOFO,144.36001210469112,749.0185303630424,,33,2019_Aug_26_1613,builder_test,3.0.0b12,59.97841370054904,21,
0,61,61,61,space,1,face,146,403,1,312,62,3,1,0,FOFO,146.60975225293078,751.2682641903084,0.6475711021921597,33,2019_Aug_26_1613,builder_test,3.0.0b12,59.97841370054904,21,
0,62,62,62,None,1,face,196,431,1,313,63,3,0,0,FOFO,148.8596685986413,753.5181801409635,,33,2019_Aug_26_1613,builder_test,3.0.0b12,59.97841370054904,21,
0,63,63,63,None,1,face,235,390,1,314,64,3,0,0,FOFO,151.10914326552302,755.767655993026,,33,2019_Aug_26_1613,builder_test,3.0.0b12,59.97841370054904,21,
0,64,64,64,None,1,face,275,245,1,315,65,3,0,0,FOFO,153.35969605542778,758.0182079928054,,33,2019_Aug_26_1613,builder_test,3.0.0b12,59.97841370054904,21,
0,65,65,65,None,1,face,185,381,1,316,66,3,0,0,FOFO,155.6094421296002,760.2679540669778,,33,2019_Aug_26_1613,builder_test,3.0.0b12,59.97841370054904,21,
0,66,66,66,space,1,face,185,408,1,317,67,3,1,0,FOFO,157.85934662345971,762.517858165782,0.7799234449630603,33,2019_Aug_26_1613,builder_test,3.0.0b12,59.97841370054904,21,
0,67,67,67,None,1,face,250,321,1,318,68,3,0,0,FOFO,160.1091361544095,764.7676476967317,,33,2019_Aug_26_1613,builder_test,3.0.0b12,59.97841370054904,21,
0,68,68,68,None,1,face,3,501,1,319,69,3,0,0,FOFO,162.3590157594008,767.0175273017085,,33,2019_Aug_26_1613,builder_test,3.0.0b12,59.97841370054904,21,
0,69,69,69,None,1,face,264,501,1,320,70,3,0,1,FOFO,164.6090237594035,769.2675353017112,,33,2019_Aug_26_1613,builder_test,3.0.0b12,59.97841370054904,21,
0,70,70,70,None,1,face,106,460,1,321,71,3,0,0,FOFO,166.85875166073674,771.517262807989,,33,2019_Aug_26_1613,builder_test,3.0.0b12,59.97841370054904,21,
0,71,71,71,space,1,face,106,7,1,322,72,3,1,0,FOFO,169.1087300311192,773.7672419684968,0.4981540747976396,33,2019_Aug_26_1613,builder_test,3.0.0b12,59.97841370054904,21,
0,72,72,72,None,1,face,407,262,1,323,73,3,0,0,FOFO,171.35878504344146,776.0172965857637,,33,2019_Aug_26_1613,builder_test,3.0.0b12,59.97841370054904,21,
0,73,73,73,None,1,face,406,132,1,324,74,3,0,0,FOFO,173.60847501887474,778.2669869562524,,33,2019_Aug_26_1613,builder_test,3.0.0b12,59.97841370054904,21,
0,74,74,74,None,1,face,262,246,1,325,75,3,0,0,FOFO,175.85887412982993,780.5173852770822,,33,2019_Aug_26_1613,builder_test,3.0.0b12,59.97841370054904,21,
0,75,75,75,None,1,face,104,246,1,326,76,3,0,1,FOFO,178.10857477191894,782.7670867092966,,33,2019_Aug_26_1613,builder_test,3.0.0b12,59.97841370054904,21,
0,76,76,76,None,1,face,285,315,1,327,77,3,0,0,FOFO,180.35819047577388,785.0167024131515,,33,2019_Aug_26_1613,builder_test,3.0.0b12,59.97841370054904,21,
0,77,77,77,None,1,face,200,335,1,328,78,3,0,0,FOFO,182.60822375971475,787.2667353020224,,33,2019_Aug_26_1613,builder_test,3.0.0b12,59.97841370054904,21,
0,78,78,78,space,1,face,200,80,1,329,79,3,1,0,FOFO,184.8579694388318,789.5164809811395,0.6466810284618987,33,2019_Aug_26_1613,builder_test,3.0.0b12,59.97841370054904,21,
0,79,79,79,None,1,face,158,80,1,330,80,3,0,1,FOFO,187.10776845125656,791.7662803886342,,33,2019_Aug_26_1613,builder_test,3.0.0b12,59.97841370054904,21,
0,80,80,80,None,1,face,84,518,1,331,81,3,0,0,FOFO,189.35794079686457,794.0164527342422,,33,2019_Aug_26_1613,builder_test,3.0.0b12,59.97841370054904,21,
0,81,81,81,None,1,face,171,6,1,332,82,3,0,0,FOFO,191.60769398215052,796.2662055244582,,33,2019_Aug_26_1613,builder_test,3.0.0b12,59.97841370054904,21,
0,82,82,82,None,1,face,404,37,1,333,83,3,0,0,FOFO,193.85764153771743,798.516153475095,,33,2019_Aug_26_1613,builder_test,3.0.0b12,59.97841370054904,21,
0,83,83,83,None,1,face,329,37,1,334,84,3,0,1,FOFO,196.10759027847962,800.7660994504258,,33,2019_Aug_26_1613,builder_test,3.0.0b12,59.97841370054904,21,
0,84,84,84,None,1,face,37,463,1,335,85,3,0,0,FOFO,198.35743393286248,803.0159482406161,,33,2019_Aug_26_1613,builder_test,3.0.0b12,59.97841370054904,21,
0,85,85,85,None,1,face,188,346,1,336,86,3,0,0,FOFO,200.60725743910007,805.2657693764777,,33,2019_Aug_26_1613,builder_test,3.0.0b12,59.97841370054904,21,
0,86,86,86,None,1,face,392,172,1,337,87,3,0,0,FOFO,202.8571943280258,807.5157058703335,,33,2019_Aug_26_1613,builder_test,3.0.0b12,59.97841370054904,21,
0,87,87,87,space,1,face,392,172,1,338,88,3,1,1,FOFO,205.10711422929307,809.7656257716008,0.5089637495402712,33,2019_Aug_26_1613,builder_test,3.0.0b12,59.97841370054904,21,
0,88,88,88,None,1,face,68,95,1,339,89,3,0,0,FOFO,207.35665605662507,812.0151675989473,,33,2019_Aug_26_1613,builder_test,3.0.0b12,59.97841370054904,21,
0,89,89,89,None,1,face,32,95,1,340,90,3,0,1,FOFO,209.60683630347194,814.2653454754181,,33,2019_Aug_26_1613,builder_test,3.0.0b12,59.97841370054904,21,
0,90,90,90,None,1,face,211,453,1,341,91,3,0,0,FOFO,211.8567613405321,816.5152748581604,,33,2019_Aug_26_1613,builder_test,3.0.0b12,59.97841370054904,21,
0,91,91,91,space,1,face,211,271,1,342,92,3,1,0,FOFO,214.10672153808991,818.7652315001469,1.094945542732603,33,2019_Aug_26_1613,builder_test,3.0.0b12,59.97841370054904,21,
0,92,92,92,None,1,face,378,323,1,343,93,3,0,0,FOFO,216.35673546401085,821.0152470063185,,33,2019_Aug_26_1613,builder_test,3.0.0b12,59.97841370054904,21,
0,93,93,93,None,1,face,187,323,1,344,94,3,0,1,FOFO,218.6063942295732,823.2649061669508,,33,2019_Aug_26_1613,builder_test,3.0.0b12,59.97841370054904,21,
0,94,94,94,space,1,face,187,290,1,345,95,3,1,0,FOFO,220.85651205669274,825.5150216236943,1.0350980602088384,33,2019_Aug_26_1613,builder_test,3.0.0b12,59.97841370054904,21,
0,95,95,95,None,1,face,111,308,1,346,96,3,0,0,FOFO,223.10625576048915,827.7647649324354,,33,2019_Aug_26_1613,builder_test,3.0.0b12,59.97841370054904,21,
0,96,96,96,None,1,face,266,505,1,347,97,3,0,0,FOFO,225.35618435310607,830.0146958954283,,33,2019_Aug_26_1613,builder_test,3.0.0b12,59.97841370054904,21,
0,97,97,97,None,1,face,192,230,1,348,98,3,0,0,FOFO,227.60604894575954,832.2645585127611,,33,2019_Aug_26_1613,builder_test,3.0.0b12,59.97841370054904,21,
0,98,98,98,None,1,face,413,101,1,349,99,3,0,0,FOFO,229.85611383462674,834.5146257719898,,33,2019_Aug_26_1613,builder_test,3.0.0b12,59.97841370054904,21,
0,99,99,99,None,1,face,276,313,1,350,100,3,0,0,FOFO,232.10527956334408,836.7637907105964,,33,2019_Aug_26_1613,builder_test,3.0.0b12,59.97841370054904,21,
0,100,100,100,None,1,face,195,467,1,351,101,3,0,0,FOFO,234.3557027730567,839.0142143153644,,33,2019_Aug_26_1613,builder_test,3.0.0b12,59.97841370054904,21,
0,101,101,101,None,1,face,217,371,1,352,102,3,0,0,FOFO,236.60523314360762,841.2637446859299,,33,2019_Aug_26_1613,builder_test,3.0.0b12,59.97841370054904,21,
0,102,102,102,None,1,face,221,371,1,353,103,3,0,1,FOFO,238.85556153854122,843.5140730808635,,33,2019_Aug_26_1613,builder_test,3.0.0b12,59.97841370054904,21,
0,103,103,103,None,1,face,2,45,1,354,104,3,0,0,FOFO,241.10540993366158,845.7639214759838,,33,2019_Aug_26_1613,builder_test,3.0.0b12,59.97841370054904,21,
0,104,104,104,None,1,face,296,45,1,355,105,3,0,1,FOFO,243.35484588450345,848.0133578218811,,33,2019_Aug_26_1613,builder_test,3.0.0b12,59.97841370054904,21,
0,105,105,105,None,1,face,251,98,1,356,106,3,0,0,FOFO,245.6052394645958,850.2637517970288,,33,2019_Aug_26_1613,builder_test,3.0.0b12,59.97841370054904,21,
0,106,106,106,None,1,face,224,98,1,357,107,3,0,1,FOFO,247.8549539338419,852.5134654761641,,33,2019_Aug_26_1613,builder_test,3.0.0b12,59.97841370054904,21,
0,107,107,107,None,1,face,11,422,1,358,108,3,0,0,FOFO,250.104950477049,854.7634592539398,,33,2019_Aug_26_1613,builder_test,3.0.0b12,59.97841370054904,21,
0,108,108,108,None,1,face,410,75,1,359,109,3,0,0,FOFO,252.35434218100272,857.0128564887418,,33,2019_Aug_26_1613,builder_test,3.0.0b12,59.97841370054904,21,
0,109,109,109,None,1,face,208,136,1,360,110,3,0,0,FOFO,254.6048459832673,859.2633579206449,,33,2019_Aug_26_1613,builder_test,3.0.0b12,59.97841370054904,21,
0,110,110,110,None,1,face,61,386,1,361,111,3,0,0,FOFO,256.85473427960824,861.5132454268605,,33,2019_Aug_26_1613,builder_test,3.0.0b12,59.97841370054904,21,
0,111,111,111,None,1,face,214,31,1,362,112,3,0,0,FOFO,259.1046751191461,863.7631898219406,,33,2019_Aug_26_1613,builder_test,3.0.0b12,59.97841370054904,21,
0,112,112,112,None,1,face,110,443,1,363,113,3,0,0,FOFO,261.35455630437355,866.0130654763198,,33,2019_Aug_26_1613,builder_test,3.0.0b12,59.97841370054904,21,
0,113,113,113,None,1,face,304,226,1,364,114,3,0,0,FOFO,263.6043596624804,868.2628712047881,,33,2019_Aug_26_1613,builder_test,3.0.0b12,59.97841370054904,21,
0,114,114,114,None,1,face,105,377,1,365,115,3,0,0,FOFO,265.8542985266977,870.512840488751,,33,2019_Aug_26_1613,builder_test,3.0.0b12,59.97841370054904,21,
0,115,115,115,space,1,face,105,12,1,366,116,3,1,0,FOFO,268.10410544034676,872.762616587599,0.6698166242567822,33,2019_Aug_26_1613,builder_test,3.0.0b12,59.97841370054904,21,
0,116,116,116,None,1,face,14,77,1,367,117,3,0,0,FOFO,270.3539629218867,875.0124716987775,,33,2019_Aug_26_1613,builder_test,3.0.0b12,59.97841370054904,21,
0,117,117,117,None,1,face,353,272,1,368,118,3,0,0,FOFO,272.60407442801807,877.2625859703403,,33,2019_Aug_26_1613,builder_test,3.0.0b12,59.97841370054904,21,
0,118,118,118,space,1,face,353,92,1,369,119,3,1,0,FOFO,274.8539263786952,879.5124379210029,0.48742143707931973,33,2019_Aug_26_1613,builder_test,3.0.0b12,59.97841370054904,21,
0,119,119,119,None,1,face,49,159,1,370,120,3,0,0,FOFO,277.1037479096267,881.7622756494675,,33,2019_Aug_26_1613,builder_test,3.0.0b12,59.97841370054904,21,
0,120,120,120,None,1,face,22,329,1,371,121,3,0,0,FOFO,279.3535998603038,884.012111402626,,33,2019_Aug_26_1613,builder_test,3.0.0b12,59.97841370054904,21,
0,121,121,121,None,1,face,345,57,1,372,122,3,0,0,FOFO,281.6035726998234,886.2620842421311,,33,2019_Aug_26_1613,builder_test,3.0.0b12,59.97841370054904,21,
0,122,122,122,space,1,face,345,57,1,373,123,3,1,1,FOFO,283.8528142803698,888.5113262177474,0.5424238844716456,33,2019_Aug_26_1613,builder_test,3.0.0b12,59.97841370054904,21,
0,123,123,123,None,1,face,92,498,1,374,124,3,0,0,FOFO,286.1034207986522,890.7619323409599,,33,2019_Aug_26_1613,builder_test,3.0.0b12,59.97841370054904,21,
0,124,124,124,space,1,face,92,441,1,375,125,3,1,0,FOFO,288.35307205804565,893.0115832052979,0.7148963101644767,33,2019_Aug_26_1613,builder_test,3.0.0b12,59.97841370054904,21,
,,,,,,,,,,,,,,,,,,,33,2019_Aug_26_1613,builder_test,3.0.0b12,59.97841370054904,21,
,,,,,,,,,,,,,,,,,,,33,2019_Aug_26_1613,builder_test,3.0.0b12,59.97841370054904,21,
,,,,,,,,,,,,,,,,,,,33,2019_Aug_26_1613,builder_test,3.0.0b12,59.97841370054904,21,
,,,,,,,,,,,,,,,,,,,33,2019_Aug_26_1613,builder_test,3.0.0b12,59.97841370054904,21,
0,0,0,0,None,1,object,328,25,1,376,1,4,0,0,FOFO,7.649471348369843,902.1445992515073,,33,2019_Aug_26_1613,builder_test,3.0.0b12,59.97841370054904,21,
0,1,1,1,None,1,object,281,191,1,377,2,4,0,0,FOFO,9.899420089117484,904.3945475972141,,33,2019_Aug_26_1613,builder_test,3.0.0b12,59.97841370054904,21,
0,2,2,2,None,1,object,65,332,1,378,3,4,0,0,FOFO,12.149383447162108,906.6445085848827,,33,2019_Aug_26_1613,builder_test,3.0.0b12,59.97841370054904,21,
0,3,3,3,None,1,object,302,348,1,379,4,4,0,0,FOFO,14.399214459568611,908.8943423627206,,33,2019_Aug_26_1613,builder_test,3.0.0b12,59.97841370054904,21,
0,4,4,4,None,1,object,302,129,1,380,5,4,0,1,FOFO,16.649110262093018,911.1442377701751,,33,2019_Aug_26_1613,builder_test,3.0.0b12,59.97841370054904,21,
0,5,5,5,None,1,object,305,419,1,381,6,4,0,0,FOFO,18.898853570834035,913.3939814739861,,33,2019_Aug_26_1613,builder_test,3.0.0b12,59.97841370054904,21,
0,6,6,6,None,1,object,170,357,1,382,7,4,0,0,FOFO,21.148852484402596,915.6439799924992,,33,2019_Aug_26_1613,builder_test,3.0.0b12,59.97841370054904,21,
0,7,7,7,space,1,object,174,357,1,383,8,4,1,0,FOFO,23.398830854785047,917.8939583628817,0.7239368991868105,33,2019_Aug_26_1613,builder_test,3.0.0b12,59.97841370054904,21,
0,8,8,8,None,1,object,20,118,1,384,9,4,0,0,FOFO,25.64859431167133,920.1437226098788,,33,2019_Aug_26_1613,builder_test,3.0.0b12,59.97841370054904,21,
0,9,9,9,space,1,object,179,118,1,385,10,4,1,0,FOFO,27.898400830265018,922.3935283383616,0.5591796309454367,33,2019_Aug_26_1613,builder_test,3.0.0b12,59.97841370054904,21,
0,10,10,10,None,1,object,317,417,1,386,11,4,0,0,FOFO,30.14853129934636,924.6436603876937,,33,2019_Aug_26_1613,builder_test,3.0.0b12,59.97841370054904,21,
0,11,11,11,None,1,object,149,360,1,387,12,4,0,0,FOFO,32.39835994139139,926.8934878445434,,33,2019_Aug_26_1613,builder_test,3.0.0b12,59.97841370054904,21,
0,12,12,12,None,1,object,149,430,1,388,13,4,0,1,FOFO,34.64818028714217,929.1433081902942,,33,2019_Aug_26_1613,builder_test,3.0.0b12,59.97841370054904,21,
0,13,13,13,None,1,object,53,208,1,389,14,4,0,0,FOFO,36.89801643535611,931.3931439434527,,33,2019_Aug_26_1613,builder_test,3.0.0b12,59.97841370054904,21,
0,14,14,14,space,1,object,350,208,1,390,15,4,1,0,FOFO,39.148056830395944,933.6431859187433,0.42450827673019376,33,2019_Aug_26_1613,builder_test,3.0.0b12,59.97841370054904,21,
0,15,15,15,None,1,object,6,224,1,391,16,4,0,0,FOFO,41.39800557115814,935.8931334743102,,33,2019_Aug_26_1613,builder_test,3.0.0b12,59.97841370054904,21,
0,16,16,16,None,1,object,57,221,1,392,17,4,0,0,FOFO,43.64783895394066,938.1429668570927,,33,2019_Aug_26_1613,builder_test,3.0.0b12,59.97841370054904,21,
0,17,17,17,None,1,object,46,337,1,393,18,4,0,0,FOFO,45.897114904844784,940.3922424129414,,33,2019_Aug_26_1613,builder_test,3.0.0b12,59.97841370054904,21,
0,18,18,18,None,1,object,46,491,1,394,19,4,0,1,FOFO,48.14756260837021,942.6426901164668,,33,2019_Aug_26_1613,builder_test,3.0.0b12,59.97841370054904,21,
0,19,19,19,None,1,object,396,465,1,395,20,4,0,0,FOFO,50.39751846024592,944.892646363398,,33,2019_Aug_26_1613,builder_test,3.0.0b12,59.97841370054904,21,
0,20,20,20,None,1,object,87,11,1,396,21,4,0,0,FOFO,52.64734196648351,947.1424694745801,,33,2019_Aug_26_1613,builder_test,3.0.0b12,59.97841370054904,21,
0,21,21,21,None,1,object,21,151,1,397,22,4,0,0,FOFO,54.89683441113448,949.3919631044118,,33,2019_Aug_26_1613,builder_test,3.0.0b12,59.97841370054904,21,
0,22,22,22,None,1,object,144,248,1,398,23,4,0,0,FOFO,57.147288830703474,951.6424167338555,,33,2019_Aug_26_1613,builder_test,3.0.0b12,59.97841370054904,21,
0,23,23,23,None,1,object,322,415,1,399,24,4,0,0,FOFO,59.397157373969094,953.8922829067451,,33,2019_Aug_26_1613,builder_test,3.0.0b12,59.97841370054904,21,
0,24,24,24,None,1,object,24,32,1,400,25,4,0,0,FOFO,61.64650127546338,956.1416295736708,,33,2019_Aug_26_1613,builder_test,3.0.0b12,59.97841370054904,21,
0,25,25,25,None,1,object,24,304,1,401,26,4,0,1,FOFO,63.89679530003923,958.3919228081213,,33,2019_Aug_26_1613,builder_test,3.0.0b12,59.97841370054904,21,
0,26,26,26,None,1,object,51,292,1,402,27,4,0,0,FOFO,66.14675707783317,960.6418849809852,,33,2019_Aug_26_1613,builder_test,3.0.0b12,59.97841370054904,21,
0,27,27,27,None,1,object,295,3,1,403,28,4,0,0,FOFO,68.39662088034675,962.8917487834988,,33,2019_Aug_26_1613,builder_test,3.0.0b12,59.97841370054904,21,
0,28,28,28,space,1,object,229,3,1,404,29,4,1,0,FOFO,70.64655460877111,965.1416817217978,0.6409000924904831,33,2019_Aug_26_1613,builder_test,3.0.0b12,59.97841370054904,21,
0,29,29,29,None,1,object,108,16,1,405,30,4,0,0,FOFO,72.89640616439283,967.3915336724749,,33,2019_Aug_26_1613,builder_test,3.0.0b12,59.97841370054904,21,
0,30,30,30,None,1,object,225,189,1,406,31,4,0,0,FOFO,75.1461885842291,969.6413164873811,,33,2019_Aug_26_1613,builder_test,3.0.0b12,59.97841370054904,21,
0,31,31,31,None,1,object,52,158,1,407,32,4,0,0,FOFO,77.39629376937228,971.8914295737486,,33,2019_Aug_26_1613,builder_test,3.0.0b12,59.97841370054904,21,
0,32,32,32,None,1,object,290,143,1,408,33,4,0,0,FOFO,79.64622433729528,974.1413498700858,,33,2019_Aug_26_1613,builder_test,3.0.0b12,59.97841370054904,21,
0,33,33,33,None,1,object,360,242,1,409,34,4,0,0,FOFO,81.89613712746359,976.3912622651842,,33,2019_Aug_26_1613,builder_test,3.0.0b12,59.97841370054904,21,
0,34,34,34,None,1,object,342,294,1,410,35,4,0,0,FOFO,84.14592586828803,978.6410510060086,,33,2019_Aug_26_1613,builder_test,3.0.0b12,59.97841370054904,21,
0,35,35,35,None,1,object,342,184,1,411,36,4,0,1,FOFO,86.39586236212926,980.8909922405874,,33,2019_Aug_26_1613,builder_test,3.0.0b12,59.97841370054904,21,
0,36,36,36,None,1,object,59,185,1,412,37,4,0,0,FOFO,88.64575381897157,983.1408813270536,,33,2019_Aug_26_1613,builder_test,3.0.0b12,59.97841370054904,21,
0,37,37,37,None,1,object,310,200,1,413,38,4,0,0,FOFO,90.89528063396574,985.3904081420624,,33,2019_Aug_26_1613,builder_test,3.0.0b12,59.97841370054904,21,
0,38,38,38,None,1,object,29,497,1,414,39,4,0,0,FOFO,93.14553870794771,987.6406662160298,,33,2019_Aug_26_1613,builder_test,3.0.0b12,59.97841370054904,21,
0,39,39,39,None,1,object,239,82,1,415,40,4,0,0,FOFO,95.39545149810147,989.8905833518656,,33,2019_Aug_26_1613,builder_test,3.0.0b12,59.97841370054904,21,
0,40,40,40,None,1,object,201,472,1,416,41,4,0,0,FOFO,97.64537574503629,992.1405269568204,,33,2019_Aug_26_1613,builder_test,3.0.0b12,59.97841370054904,21,
0,41,41,41,None,1,object,337,186,1,417,42,4,0,0,FOFO,99.89488280696969,994.3900245372788,,33,2019_Aug_26_1613,builder_test,3.0.0b12,59.97841370054904,21,
0,42,42,42,None,1,object,207,279,1,418,43,4,0,0,FOFO,102.14511441181821,996.6402415248449,,33,2019_Aug_26_1613,builder_test,3.0.0b12,59.97841370054904,21,
0,43,43,43,None,1,object,207,21,1,419,44,4,0,1,FOFO,104.39497781927639,998.8901246853784,,33,2019_Aug_26_1613,builder_test,3.0.0b12,59.97841370054904,21,
0,44,44,44,space,1,object,122,21,1,420,45,4,1,0,FOFO,106.64487243660551,1001.1399999446876,0.5168175736034755,33,2019_Aug_26_1613,builder_test,3.0.0b12,59.97841370054904,21,
0,45,45,45,None,1,object,220,473,1,421,46,4,0,0,FOFO,108.89464102928468,1003.3897693274921,,33,2019_Aug_26_1613,builder_test,3.0.0b12,59.97841370054904,21,
0,46,46,46,None,1,object,309,236,1,422,47,4,0,0,FOFO,111.14470354777586,1005.6398634509096,,33,2019_Aug_26_1613,builder_test,3.0.0b12,59.97841370054904,21,
0,47,47,47,None,1,object,293,420,1,423,48,4,0,0,FOFO,113.39455154784082,1007.8896786608675,,33,2019_Aug_26_1613,builder_test,3.0.0b12,59.97841370054904,21,
0,48,48,48,space,1,object,242,420,1,424,49,4,1,0,FOFO,115.64436478247808,1010.1394922905747,0.559759186260635,33,2019_Aug_26_1613,builder_test,3.0.0b12,59.97841370054904,21,
0,49,49,49,None,1,object,327,123,1,425,50,4,0,0,FOFO,117.89391609129962,1012.3890439944516,,33,2019_Aug_26_1613,builder_test,3.0.0b12,59.97841370054904,21,
0,50,50,50,None,1,object,155,128,1,426,51,4,0,0,FOFO,120.14415599244239,1014.6392838955944,,33,2019_Aug_26_1613,builder_test,3.0.0b12,59.97841370054904,21,
0,51,51,51,None,1,object,377,43,1,427,52,4,0,0,FOFO,122.3940604863019,1016.8891887845093,,33,2019_Aug_26_1613,builder_test,3.0.0b12,59.97841370054904,21,
0,52,52,52,None,1,object,148,240,1,428,53,4,0,0,FOFO,124.64395786906243,1019.1390834018384,,33,2019_Aug_26_1613,builder_test,3.0.0b12,59.97841370054904,21,
0,53,53,53,space,1,object,133,240,1,429,54,4,1,0,FOFO,126.89387421477295,1021.3890036981757,0.6500141629512655,33,2019_Aug_26_1613,builder_test,3.0.0b12,59.97841370054904,21,
0,54,54,54,None,1,object,268,27,1,430,55,4,0,0,FOFO,129.14390394315706,1023.6390318463091,,33,2019_Aug_26_1613,builder_test,3.0.0b12,59.97841370054904,21,
0,55,55,55,None,1,object,268,249,1,431,56,4,0,1,FOFO,131.39390799253306,1025.8890473524662,,33,2019_Aug_26_1613,builder_test,3.0.0b12,59.97841370054904,21,
0,56,56,56,None,1,object,66,480,1,432,57,4,0,0,FOFO,133.6436351037555,1028.1387602414761,,33,2019_Aug_26_1613,builder_test,3.0.0b12,59.97841370054904,21,
0,57,57,57,None,1,object,270,121,1,433,58,4,0,0,FOFO,135.89291540034174,1030.3880429084238,,33,2019_Aug_26_1613,builder_test,3.0.0b12,59.97841370054904,21,
0,58,58,58,None,1,object,270,508,1,434,59,4,0,1,FOFO,138.14347530134546,1032.638600834136,,33,2019_Aug_26_1613,builder_test,3.0.0b12,59.97841370054904,21,
0,59,59,59,None,1,object,376,383,1,435,60,4,0,0,FOFO,140.39331026437867,1034.8884614761628,,33,2019_Aug_26_1613,builder_test,3.0.0b12,59.97841370054904,21,
0,60,60,60,None,1,object,9,426,1,436,61,4,0,0,FOFO,142.64387214070302,1037.1390008339658,,33,2019_Aug_26_1613,builder_test,3.0.0b12,59.97841370054904,21,
0,61,61,61,None,1,object,274,89,1,437,62,4,0,0,FOFO,144.89279253619316,1039.3879208344006,,33,2019_Aug_26_1613,builder_test,3.0.0b12,59.97841370054904,21,
0,62,62,62,None,1,object,274,281,1,438,63,4,0,1,FOFO,147.1430774743494,1041.6382053775014,,33,2019_Aug_26_1613,builder_test,3.0.0b12,59.97841370054904,21,
0,63,63,63,None,1,object,375,500,1,439,64,4,0,0,FOFO,149.39296577069035,1043.8880936738424,,33,2019_Aug_26_1613,builder_test,3.0.0b12,59.97841370054904,21,
0,64,64,64,space,1,object,169,500,1,440,65,4,1,0,FOFO,151.64249061037845,1046.137615748099,0.6603217144438531,33,2019_Aug_26_1613,builder_test,3.0.0b12,59.97841370054904,21,
0,65,65,65,None,1,object,88,320,1,441,66,4,0,0,FOFO,153.8922825116897,1048.3874100197863,,33,2019_Aug_26_1613,builder_test,3.0.0b12,59.97841370054904,21,
0,66,66,66,None,1,object,7,287,1,442,67,4,0,0,FOFO,156.14254453628382,1050.6376724394358,,33,2019_Aug_26_1613,builder_test,3.0.0b12,59.97841370054904,21,
0,67,67,67,None,1,object,7,64,1,443,68,4,0,1,FOFO,158.39281762260362,1052.887945525741,,33,2019_Aug_26_1613,builder_test,3.0.0b12,59.97841370054904,21,
0,68,68,68,None,1,object,297,87,1,444,69,4,0,0,FOFO,160.64234443759779,1055.1374723407498,,33,2019_Aug_26_1613,builder_test,3.0.0b12,59.97841370054904,21,
0,69,69,69,None,1,object,306,318,1,445,70,4,0,0,FOFO,162.89199530193582,1057.3871224149625,,33,2019_Aug_26_1613,builder_test,3.0.0b12,59.97841370054904,21,
0,70,70,70,None,1,object,356,84,1,446,71,4,0,0,FOFO,165.141650116886,1059.636778020038,,33,2019_Aug_26_1613,builder_test,3.0.0b12,59.97841370054904,21,
0,71,71,71,None,1,object,48,402,1,447,72,4,0,0,FOFO,167.39208241300366,1061.8872107112256,,33,2019_Aug_26_1613,builder_test,3.0.0b12,59.97841370054904,21,
0,72,72,72,None,1,object,129,147,1,448,73,4,0,0,FOFO,169.64198493157164,1064.1371148100297,,33,2019_Aug_26_1613,builder_test,3.0.0b12,59.97841370054904,21,
0,73,73,73,None,1,object,261,176,1,449,74,4,0,0,FOFO,171.89160419098334,1066.3867320941208,,33,2019_Aug_26_1613,builder_test,3.0.0b12,59.97841370054904,21,
0,74,74,74,None,1,object,334,306,1,450,75,4,0,0,FOFO,174.14184606741765,1068.6369743656396,,33,2019_Aug_26_1613,builder_test,3.0.0b12,59.97841370054904,21,
0,75,75,75,None,1,object,183,110,1,451,76,4,0,0,FOFO,176.39095056160295,1070.886078464755,,33,2019_Aug_26_1613,builder_test,3.0.0b12,59.97841370054904,21,
0,76,76,76,None,1,object,62,18,1,452,77,4,0,0,FOFO,178.64153614161478,1073.1366640447668,,33,2019_Aug_26_1613,builder_test,3.0.0b12,59.97841370054904,21,
0,77,77,77,space,1,object,62,18,1,453,78,4,1,1,FOFO,180.89105308007856,1075.3861805881752,0.45726994280994404,33,2019_Aug_26_1613,builder_test,3.0.0b12,59.97841370054904,21,
0,78,78,78,None,1,object,330,328,1,454,79,4,0,0,FOFO,183.1412795491342,1077.6364070572163,,33,2019_Aug_26_1613,builder_test,3.0.0b12,59.97841370054904,21,
0,79,79,79,None,1,object,330,366,1,455,80,4,0,1,FOFO,185.39126740099164,1079.8863949090737,,33,2019_Aug_26_1613,builder_test,3.0.0b12,59.97841370054904,21,
0,80,80,80,None,1,object,63,2,1,456,81,4,0,0,FOFO,187.640980685057,1082.136108193139,,33,2019_Aug_26_1613,builder_test,3.0.0b12,59.97841370054904,21,
0,81,81,81,None,1,object,8,192,1,457,82,4,0,0,FOFO,189.89062878394907,1084.385756687101,,33,2019_Aug_26_1613,builder_test,3.0.0b12,59.97841370054904,21,
0,82,82,82,space,1,object,41,192,1,458,83,4,1,0,FOFO,192.14168725267518,1086.6368151558272,0.623755210370291,33,2019_Aug_26_1613,builder_test,3.0.0b12,59.97841370054904,21,
0,83,83,83,None,1,object,76,300,1,459,84,4,0,0,FOFO,194.39074157403957,1088.8858667117602,,33,2019_Aug_26_1613,builder_test,3.0.0b12,59.97841370054904,21,
0,84,84,84,None,1,object,76,407,1,460,85,4,0,1,FOFO,196.64102967268263,1091.1361571807793,,33,2019_Aug_26_1613,builder_test,3.0.0b12,59.97841370054904,21,
0,85,85,85,None,1,object,386,401,1,461,86,4,0,0,FOFO,198.8902372779412,1093.3853655761486,,33,2019_Aug_26_1613,builder_test,3.0.0b12,59.97841370054904,21,
0,86,86,86,None,1,object,34,351,1,462,87,4,0,0,FOFO,201.14039816676814,1095.6355248847249,,33,2019_Aug_26_1613,builder_test,3.0.0b12,59.97841370054904,21,
0,87,87,87,None,1,object,34,354,1,463,88,4,0,1,FOFO,203.39020350016654,1097.8853314033186,,33,2019_Aug_26_1613,builder_test,3.0.0b12,59.97841370054904,21,
0,88,88,88,None,1,object,398,243,1,464,89,4,0,0,FOFO,205.64077683327196,1100.1359023660625,,33,2019_Aug_26_1613,builder_test,3.0.0b12,59.97841370054904,21,
0,89,89,89,None,1,object,27,20,1,465,90,4,0,0,FOFO,207.8896521917486,1102.384780489956,,33,2019_Aug_26_1613,builder_test,3.0.0b12,59.97841370054904,21,
0,90,90,90,None,1,object,70,327,1,466,91,4,0,0,FOFO,210.14067194443487,1104.635799452517,,33,2019_Aug_26_1613,builder_test,3.0.0b12,59.97841370054904,21,
0,91,91,91,space,1,object,190,327,1,467,92,4,1,0,FOFO,212.39066848764196,1106.8857959957386,0.5716975519171683,33,2019_Aug_26_1613,builder_test,3.0.0b12,59.97841370054904,21,
0,92,92,92,None,1,object,142,353,1,468,93,4,0,0,FOFO,214.64019767301215,1109.1353251811088,,33,2019_Aug_26_1613,builder_test,3.0.0b12,59.97841370054904,21,
0,93,93,93,None,1,object,212,157,1,469,94,4,0,0,FOFO,216.88928794498497,1111.384415453067,,33,2019_Aug_26_1613,builder_test,3.0.0b12,59.97841370054904,21,
0,94,94,94,space,1,object,78,157,1,470,95,4,1,0,FOFO,219.13997466074943,1113.6351025639015,0.8145146411843598,33,2019_Aug_26_1613,builder_test,3.0.0b12,59.97841370054904,21,
0,95,95,95,None,1,object,267,274,1,471,96,4,0,0,FOFO,221.38995816693932,1115.8850856750214,,33,2019_Aug_26_1613,builder_test,3.0.0b12,59.97841370054904,21,
0,96,96,96,space,1,object,267,274,1,472,97,4,1,1,FOFO,223.63985396944918,1118.1349791071698,0.6262401476560626,33,2019_Aug_26_1613,builder_test,3.0.0b12,59.97841370054904,21,
0,97,97,97,None,1,object,89,299,1,473,98,4,0,0,FOFO,225.88906671050063,1120.3841946136527,,33,2019_Aug_26_1613,builder_test,3.0.0b12,59.97841370054904,21,
0,98,98,98,space,1,object,343,299,1,474,99,4,1,0,FOFO,228.1397478954168,1122.6348754034989,0.5717852555826539,33,2019_Aug_26_1613,builder_test,3.0.0b12,59.97841370054904,21,
0,99,99,99,None,1,object,85,130,1,475,100,4,0,0,FOFO,230.38964132755063,1124.8847692307027,,33,2019_Aug_26_1613,builder_test,3.0.0b12,59.97841370054904,21,
0,100,100,100,None,1,object,272,447,1,476,101,4,0,0,FOFO,232.63957782140642,1127.1347057245584,,33,2019_Aug_26_1613,builder_test,3.0.0b12,59.97841370054904,21,
0,101,101,101,None,1,object,402,228,1,477,102,4,0,0,FOFO,234.88941831530246,1129.3845450332592,,33,2019_Aug_26_1613,builder_test,3.0.0b12,59.97841370054904,21,
0,102,102,102,None,1,object,402,413,1,478,103,4,0,1,FOFO,237.13808152569982,1131.6332098239072,,33,2019_Aug_26_1613,builder_test,3.0.0b12,59.97841370054904,21,
0,103,103,103,None,1,object,102,188,1,479,104,4,0,0,FOFO,239.3884549576469,1133.8835824657435,,33,2019_Aug_26_1613,builder_test,3.0.0b12,59.97841370054904,21,
0,104,104,104,None,1,object,263,73,1,480,105,4,0,0,FOFO,241.6388607846602,1136.1339882927423,,33,2019_Aug_26_1613,builder_test,3.0.0b12,59.97841370054904,21,
0,105,105,105,space,1,object,163,73,1,481,106,4,1,0,FOFO,243.88871866125555,1138.3838465644076,0.591806581011042,33,2019_Aug_26_1613,builder_test,3.0.0b12,59.97841370054904,21,
0,106,106,106,None,1,object,163,444,1,482,107,4,0,1,FOFO,246.1388917969889,1140.634019305071,,33,2019_Aug_26_1613,builder_test,3.0.0b12,59.97841370054904,21,
0,107,107,107,space,1,object,394,444,1,483,108,4,1,0,FOFO,248.38876350074133,1142.8838910088234,0.5186348568386165,33,2019_Aug_26_1613,builder_test,3.0.0b12,59.97841370054904,21,
0,108,108,108,None,1,object,363,209,1,484,109,4,0,0,FOFO,250.6385842415475,1145.1337117496441,,33,2019_Aug_26_1613,builder_test,3.0.0b12,59.97841370054904,21,
0,109,109,109,None,1,object,363,233,1,485,110,4,0,1,FOFO,252.8885325872543,1147.3836604904063,,33,2019_Aug_26_1613,builder_test,3.0.0b12,59.97841370054904,21,
0,110,110,110,None,1,object,259,513,1,486,111,4,0,0,FOFO,255.13861762425222,1149.6337455274042,,33,2019_Aug_26_1613,builder_test,3.0.0b12,59.97841370054904,21,
0,111,111,111,None,1,object,385,259,1,487,112,4,0,0,FOFO,257.3882143651572,1151.8833418732393,,33,2019_Aug_26_1613,builder_test,3.0.0b12,59.97841370054904,21,
0,112,112,112,space,1,object,94,259,1,488,113,4,1,0,FOFO,259.63810068619205,1154.1332281942741,0.5182014742895262,33,2019_Aug_26_1613,builder_test,3.0.0b12,59.97841370054904,21,
0,113,113,113,None,1,object,379,148,1,489,114,4,0,0,FOFO,261.8874133778154,1156.3825424661482,,33,2019_Aug_26_1613,builder_test,3.0.0b12,59.97841370054904,21,
0,114,114,114,space,1,object,5,148,1,490,115,4,1,0,FOFO,264.1374739210005,1158.6326014290971,0.5039642453484703,33,2019_Aug_26_1613,builder_test,3.0.0b12,59.97841370054904,21,
0,115,115,115,None,1,object,303,131,1,491,116,4,0,0,FOFO,266.3873258716776,1160.8824529847043,,33,2019_Aug_26_1613,builder_test,3.0.0b12,59.97841370054904,21,
0,116,116,116,space,1,object,298,131,1,492,117,4,1,0,FOFO,268.6370826125203,1163.1322101206024,0.5161127837636741,33,2019_Aug_26_1613,builder_test,3.0.0b12,59.97841370054904,21,
0,117,117,117,None,1,object,177,91,1,493,118,4,0,0,FOFO,270.8871340692858,1165.382282120583,,33,2019_Aug_26_1613,builder_test,3.0.0b12,59.97841370054904,21,
0,118,118,118,None,1,object,387,42,1,494,119,4,0,0,FOFO,273.13684932865726,1167.6319776268647,,33,2019_Aug_26_1613,builder_test,3.0.0b12,59.97841370054904,21,
0,119,119,119,None,1,object,387,411,1,495,120,4,0,1,FOFO,275.3868435015029,1169.8819931330363,,33,2019_Aug_26_1613,builder_test,3.0.0b12,59.97841370054904,21,
0,120,120,120,None,1,object,206,316,1,496,121,4,0,0,FOFO,277.63695856317645,1172.132086071273,,33,2019_Aug_26_1613,builder_test,3.0.0b12,59.97841370054904,21,
0,121,121,121,space,1,object,206,316,1,497,122,4,1,1,FOFO,279.8864636498038,1174.3815911578859,0.6101125490822596,33,2019_Aug_26_1613,builder_test,3.0.0b12,59.97841370054904,21,
0,122,122,122,None,1,object,222,468,1,498,123,4,0,0,FOFO,282.13644676090917,1176.6315742690058,,33,2019_Aug_26_1613,builder_test,3.0.0b12,59.97841370054904,21,
0,123,123,123,None,1,object,321,400,1,499,124,4,0,0,FOFO,284.3863200449123,1178.8814479480643,,33,2019_Aug_26_1613,builder_test,3.0.0b12,59.97841370054904,21,
0,124,124,124,None,1,object,359,28,1,500,125,4,0,0,FOFO,286.63635332885315,1181.1314808369498,,33,2019_Aug_26_1613,builder_test,3.0.0b12,59.97841370054904,21,
